STUDYID;DOMAIN;USUBJID;SUBJID;RFSTDTC;RFENDTC;BRTHDTC;AGE;AGEU;SEX;SPECIES;STRAIN;ARMCD;SETCD;ARM;RFXSTDTC;RFXENDTC;AGETXT;SITEID;SBSTRAIN
CV01;DM;CV01_P656;P656;2014-10-17;2014-11-08;2012-11-16;700;DAYS;F;DOG;BEAGLE;3;3;;;;;;
CV01;DM;CV01_R159;R159;2014-10-17;2014-11-08;2012-09-16;761;DAYS;F;DOG;BEAGLE;4;4;;;;;;
CV01;DM;CV01_Q399;Q399;2014-10-17;2014-11-08;2012-11-25;691;DAYS;M;DOG;BEAGLE;1;1;;;;;;
CV01;DM;CV01_R545;R545;2014-10-17;2014-11-08;2013-02-18;606;DAYS;M;DOG;BEAGLE;2;2;;;;;;
CJ16050;DM;CJ16050_00M01;00M01;2016-12-07;2016-12-07;;8;WEEKS;M;;;00;00;Control;;;;;
CJ16050;DM;CJ16050_00M02;00M02;2016-12-07;2016-12-07;;8;WEEKS;M;;;00;00;Control;;;;;
CJ16050;DM;CJ16050_00M03;00M03;2016-12-08;2016-12-08;;8;WEEKS;M;;;00;00;Control;;;;;
CJ16050;DM;CJ16050_00M04;00M04;2016-12-08;2016-12-08;;8;WEEKS;M;;;00;00;Control;;;;;
CJ16050;DM;CJ16050_00M05;00M05;2016-12-09;2016-12-09;;8;WEEKS;M;;;00;00;Control;;;;;
CJ16050;DM;CJ16050_00M06;00M06;2016-12-09;2016-12-09;;8;WEEKS;M;;;00;00;Control;;;;;
CJ16050;DM;CJ16050_01M01;01M01;2016-12-07;2016-12-07;;8;WEEKS;M;;;01;01;Compound A 100 mg/kg;;;;;
CJ16050;DM;CJ16050_01M02;01M02;2016-12-07;2016-12-07;;8;WEEKS;M;;;01;01;Compound A 100 mg/kg;;;;;
CJ16050;DM;CJ16050_01M03;01M03;2016-12-08;2016-12-08;;8;WEEKS;M;;;01;01;Compound A 100 mg/kg;;;;;
CJ16050;DM;CJ16050_01M04;01M04;2016-12-08;2016-12-08;;8;WEEKS;M;;;01;01;Compound A 100 mg/kg;;;;;
CJ16050;DM;CJ16050_01M05;01M05;2016-12-09;2016-12-09;;8;WEEKS;M;;;01;01;Compound A 100 mg/kg;;;;;
CJ16050;DM;CJ16050_01M06;01M06;2016-12-09;2016-12-09;;8;WEEKS;M;;;01;01;Compound A 100 mg/kg;;;;;
CJ16050;DM;CJ16050_02M01;02M01;2016-12-07;2016-12-07;;8;WEEKS;M;;;02;02;Compound A 1000 mg/kg;;;;;
CJ16050;DM;CJ16050_02M02;02M02;2016-12-07;2016-12-07;;8;WEEKS;M;;;02;02;Compound A 1000 mg/kg;;;;;
CJ16050;DM;CJ16050_02M03;02M03;2016-12-08;2016-12-08;;8;WEEKS;M;;;02;02;Compound A 1000 mg/kg;;;;;
CJ16050;DM;CJ16050_02M04;02M04;2016-12-08;2016-12-08;;8;WEEKS;M;;;02;02;Compound A 1000 mg/kg;;;;;
CJ16050;DM;CJ16050_02M05;02M05;2016-12-09;2016-12-09;;8;WEEKS;M;;;02;02;Compound A 1000 mg/kg;;;;;
CJ16050;DM;CJ16050_02M06;02M06;2016-12-09;2016-12-09;;8;WEEKS;M;;;02;02;Compound A 1000 mg/kg;;;;;
CJUGSEND00;DM;CJUGSEND00_M001;M001;2014-09-03;2014-09-25;;;YEARS;M;;;1;1;Compound A, PO, 0-10-30-100 mg/kg;2014-09-03;2014-09-24;3-4;;
CJUGSEND00;DM;CJUGSEND00_M002;M002;2014-09-03;2014-09-25;;;YEARS;M;;;1;1;Compound A, PO, 0-10-30-100 mg/kg;2014-09-03;2014-09-24;3-4;;
CJUGSEND00;DM;CJUGSEND00_M003;M003;2014-09-03;2014-09-25;;;YEARS;M;;;1;1;Compound A, PO, 0-10-30-100 mg/kg;2014-09-03;2014-09-24;3-4;;
CJUGSEND00;DM;CJUGSEND00_M004;M004;2014-09-03;2014-09-25;;;YEARS;M;;;1;1;Compound A, PO, 0-10-30-100 mg/kg;2014-09-03;2014-09-24;3-4;;
Study ID;DM;Study ID-1002;1002;2014-09-18;2014-10-17;2011-10-06;1078;DAYS;F;;;1;1;Vehicle control:1;;;;Test Site Name;
Study ID;DM;Study ID-1004;1004;2014-09-18;2014-10-17;2011-10-14;1070;DAYS;F;;;1;1;Vehicle control:1;;;;Test Site Name;
Study ID;DM;Study ID-2002;2002;2014-09-18;2014-10-17;2011-09-14;1100;DAYS;F;;;2;2;Dose:2;;;;Test Site Name;
Study ID;DM;Study ID-2004;2004;2014-09-18;2014-10-17;2011-09-10;1104;DAYS;F;;;2;2;Dose:2;;;;Test Site Name;
Study ID;DM;Study ID-3002;3002;2014-09-18;2014-10-17;2011-11-04;1049;DAYS;F;;;3;3;Dose:3;;;;Test Site Name;
Study ID;DM;Study ID-3004;3004;2014-09-18;2014-10-17;2011-08-26;1119;DAYS;F;;;3;3;Dose:3;;;;Test Site Name;
Study ID;DM;Study ID-4002;4002;2014-09-18;2014-10-17;2011-06-05;1201;DAYS;F;;;4;4;Dose:4;;;;Test Site Name;
Study ID;DM;Study ID-4004;4004;2014-09-18;2014-10-17;2011-07-19;1157;DAYS;F;;;4;4;Dose:4;;;;Test Site Name;
Study ID;DM;Study ID-5002;5002;2014-09-18;2014-10-17;2010-12-17;1371;DAYS;F;;;5;5;Dose:5;;;;Test Site Name;
Study ID;DM;Study ID-5004;5004;2014-09-18;2014-10-17;2011-01-20;1337;DAYS;F;;;5;5;Dose:5;;;;Test Site Name;
GLP003;DM;107001493;1101;2007-06-12;2007-07-10T11:32:14;2007-04-09;64;DAYS;M;;;1;1;Control Vehicle;;;;;
GLP003;DM;107001427;1102;2007-06-12;2007-07-10T11:32:21;2007-04-09;64;DAYS;M;;;1;1;Control Vehicle;;;;;
GLP003;DM;107001458;1103;2007-06-12;2007-07-10T11:32:28;2007-04-09;64;DAYS;M;;;1;1;Control Vehicle;;;;;
GLP003;DM;107001389;1104;2007-06-12;2007-07-10T11:32:39;2007-04-09;64;DAYS;M;;;1;1;Control Vehicle;;;;;
GLP003;DM;107001377;1105;2007-06-12;2007-07-10T11:32:54;2007-04-09;64;DAYS;M;;;1;1;Control Vehicle;;;;;
GLP003;DM;107001472;1106;2007-06-12;2007-07-11T09:38:28;2007-04-09;64;DAYS;M;;;1;1;Control Vehicle;;;;;
GLP003;DM;107001401;1107;2007-06-12;2007-07-11T09:38:38;2007-04-09;64;DAYS;M;;;1;1;Control Vehicle;;;;;
GLP003;DM;107001466;1108;2007-06-12;2007-07-11T09:39:18;2007-04-09;64;DAYS;M;;;1;1;Control Vehicle;;;;;
GLP003;DM;107001428;1109;2007-06-12;2007-07-11T09:39:36;2007-04-09;64;DAYS;M;;;1;1;Control Vehicle;;;;;
GLP003;DM;107001483;1110;2007-06-12;2007-07-11T09:39:55;2007-04-09;64;DAYS;M;;;1;1;Control Vehicle;;;;;
GLP003;DM;107001397;1111;2007-06-12;2007-07-24T09:54:54;2007-04-09;64;DAYS;M;;;1R;1;Recovery Control Vehicle;;;;;
GLP003;DM;107001467;1112;2007-06-12;2007-07-24T09:55:08;2007-04-09;64;DAYS;M;;;1R;1;Recovery Control Vehicle;;;;;
GLP003;DM;107001387;1113;2007-06-12;2007-07-24T09:55:15;2007-04-09;64;DAYS;M;;;1R;1;Recovery Control Vehicle;;;;;
GLP003;DM;107001384;1114;2007-06-12;2007-07-24T09:55:21;2007-04-09;64;DAYS;M;;;1R;1;Recovery Control Vehicle;;;;;
GLP003;DM;107001423;1115;2007-06-12;2007-07-24T09:55:34;2007-04-09;64;DAYS;M;;;1R;1;Recovery Control Vehicle;;;;;
GLP003;DM;107001529;1201;2007-06-14;2007-07-12T10:59:20;2007-04-09;66;DAYS;F;;;1;1;Control Vehicle;;;;;
GLP003;DM;107001528;1202;2007-06-14;2007-07-12T10:59:25;2007-04-09;66;DAYS;F;;;1;1;Control Vehicle;;;;;
GLP003;DM;107001576;1203;2007-06-14;2007-07-12T10:59:30;2007-04-09;66;DAYS;F;;;1;1;Control Vehicle;;;;;
GLP003;DM;107001616;1204;2007-06-14;2007-07-12T10:59:36;2007-04-09;66;DAYS;F;;;1;1;Control Vehicle;;;;;
GLP003;DM;107001500;1205;2007-06-14;2007-07-12T10:59:52;2007-04-09;66;DAYS;F;;;1;1;Control Vehicle;;;;;
GLP003;DM;107001535;1206;2007-06-14;2007-07-13T10:34:17;2007-04-09;66;DAYS;F;;;1;1;Control Vehicle;;;;;
GLP003;DM;107001647;1207;2007-06-14;2007-07-13T10:34:22;2007-04-09;66;DAYS;F;;;1;1;Control Vehicle;;;;;
GLP003;DM;107001592;1208;2007-06-14;2007-07-13T10:34:28;2007-04-09;66;DAYS;F;;;1;1;Control Vehicle;;;;;
GLP003;DM;107001569;1209;2007-06-14;2007-07-13T10:34:33;2007-04-09;66;DAYS;F;;;1;1;Control Vehicle;;;;;
GLP003;DM;107001537;1210;2007-06-14;2007-07-13T10:34:45;2007-04-09;66;DAYS;F;;;1;1;Control Vehicle;;;;;
GLP003;DM;107001594;1211;2007-06-14;2007-07-26T11:39:11;2007-04-09;66;DAYS;F;;;1R;1;Recovery Control Vehicle;;;;;
GLP003;DM;107001619;1212;2007-06-14;2007-07-26T11:39:18;2007-04-09;66;DAYS;F;;;1R;1;Recovery Control Vehicle;;;;;
GLP003;DM;107001518;1213;2007-06-14;2007-07-26T11:39:25;2007-04-09;66;DAYS;F;;;1R;1;Recovery Control Vehicle;;;;;
GLP003;DM;107001538;1214;2007-06-14;2007-07-26T11:39:32;2007-04-09;66;DAYS;F;;;1R;1;Recovery Control Vehicle;;;;;
GLP003;DM;107001581;1215;2007-06-14;2007-07-26T11:39:38;2007-04-09;66;DAYS;F;;;1R;1;Recovery Control Vehicle;;;;;
GLP003;DM;107001469;2101;2007-06-12;2007-07-10T11:33:05;2007-04-09;64;DAYS;M;;;2;2;Control Water;;;;;
GLP003;DM;107001425;2102;2007-06-12;2007-07-10T11:33:11;2007-04-09;64;DAYS;M;;;2;2;Control Water;;;;;
GLP003;DM;107001440;2103;2007-06-12;2007-07-10T11:33:17;2007-04-09;64;DAYS;M;;;2;2;Control Water;;;;;
GLP003;DM;107001419;2104;2007-06-12;2007-07-10T11:33:24;2007-04-09;64;DAYS;M;;;2;2;Control Water;;;;;
GLP003;DM;107001437;2105;2007-06-12;2007-07-10T11:33:35;2007-04-09;64;DAYS;M;;;2;2;Control Water;;;;;
GLP003;DM;107001415;2106;2007-06-12;2007-07-11T09:40:28;2007-04-09;64;DAYS;M;;;2;2;Control Water;;;;;
GLP003;DM;107001368;2107;2007-06-12;2007-06-17T10:37:16;2007-04-09;64;DAYS;M;;;2;2;Control Water;;;;;
GLP003;DM;107001455;2108;2007-06-12;2007-07-11T09:40:39;2007-04-09;64;DAYS;M;;;2;2;Control Water;;;;;
GLP003;DM;107001470;2109;2007-06-12;2007-07-11T09:41:50;2007-04-09;64;DAYS;M;;;2;2;Control Water;;;;;
GLP003;DM;107001456;2110;2007-06-12;2007-07-11T09:41:58;2007-04-09;64;DAYS;M;;;2;2;Control Water;;;;;
GLP003;DM;107001351;2111;2007-06-12;2007-07-24T09:55:49;2007-04-09;64;DAYS;M;;;2R;2;Recovery Control Water;;;;;
GLP003;DM;107001382;2112;2007-06-12;2007-07-24T09:56:00;2007-04-09;64;DAYS;M;;;2R;2;Recovery Control Water;;;;;
GLP003;DM;107001362;2113;2007-06-12;2007-07-24T09:56:08;2007-04-09;64;DAYS;M;;;2R;2;Recovery Control Water;;;;;
GLP003;DM;107001363;2114;2007-06-12;2007-07-24T09:56:14;2007-04-09;64;DAYS;M;;;2R;2;Recovery Control Water;;;;;
GLP003;DM;107001473;2115;2007-06-12;2007-07-24T09:56:27;2007-04-09;64;DAYS;M;;;2R;2;Recovery Control Water;;;;;
GLP003;DM;107001525;2201;2007-06-14;2007-07-12T11:00:05;2007-04-09;66;DAYS;F;;;2;2;Control Water;;;;;
GLP003;DM;107001541;2202;2007-06-14;2007-07-12T11:00:11;2007-04-09;66;DAYS;F;;;2;2;Control Water;;;;;
GLP003;DM;107001579;2203;2007-06-14;2007-07-12T11:00:15;2007-04-09;66;DAYS;F;;;2;2;Control Water;;;;;
GLP003;DM;107001534;2204;2007-06-14;2007-07-12T11:00:23;2007-04-09;66;DAYS;F;;;2;2;Control Water;;;;;
GLP003;DM;107001629;2205;2007-06-14;2007-06-21T09:21:28;2007-04-09;66;DAYS;F;;;2;2;Control Water;;;;;
GLP003;DM;107001511;2206;2007-06-14;2007-07-12T11:00:28;2007-04-09;66;DAYS;F;;;2;2;Control Water;;;;;
GLP003;DM;107001620;2207;2007-06-14;2007-07-13T10:34:49;2007-04-09;66;DAYS;F;;;2;2;Control Water;;;;;
GLP003;DM;107001641;2208;2007-06-14;2007-07-13T10:35:01;2007-04-09;66;DAYS;F;;;2;2;Control Water;;;;;
GLP003;DM;107001602;2209;2007-06-14;2007-07-13T10:35:06;2007-04-09;66;DAYS;F;;;2;2;Control Water;;;;;
GLP003;DM;107001513;2210;2007-06-14;2007-07-13T10:35:11;2007-04-09;66;DAYS;F;;;2;2;Control Water;;;;;
GLP003;DM;107001556;2211;2007-06-14;2007-07-26T11:39:44;2007-04-09;66;DAYS;F;;;2R;2;Recovery Control Water;;;;;
GLP003;DM;107001561;2212;2007-06-14;2007-07-26T11:39:50;2007-04-09;66;DAYS;F;;;2R;2;Recovery Control Water;;;;;
GLP003;DM;107001559;2213;2007-06-14;2007-07-26T11:40:03;2007-04-09;66;DAYS;F;;;2R;2;Recovery Control Water;;;;;
GLP003;DM;107001609;2214;2007-06-14;2007-07-26T11:40:10;2007-04-09;66;DAYS;F;;;2R;2;Recovery Control Water;;;;;
GLP003;DM;107001563;2215;2007-06-14;2007-07-26T11:40:16;2007-04-09;66;DAYS;F;;;2R;2;Recovery Control Water;;;;;
GLP003;DM;107001441;3101;2007-06-12;2007-07-10T11:33:44;2007-04-09;64;DAYS;M;;;3;3;Low Dose;;;;;
GLP003;DM;107001488;3102;2007-06-12;2007-07-10T11:33:52;2007-04-09;64;DAYS;M;;;3;3;Low Dose;;;;;
GLP003;DM;107001431;3103;2007-06-12;2007-07-10T11:33:58;2007-04-09;64;DAYS;M;;;3;3;Low Dose;;;;;
GLP003;DM;107001394;3104;2007-06-12;2007-07-10T11:34:03;2007-04-09;64;DAYS;M;;;3;3;Low Dose;;;;;
GLP003;DM;107001480;3105;2007-06-12;2007-07-10T11:34:10;2007-04-09;64;DAYS;M;;;3;3;Low Dose;;;;;
GLP003;DM;107001411;3106;2007-06-12;2007-07-11T09:42:17;2007-04-09;64;DAYS;M;;;3;3;Low Dose;;;;;
GLP003;DM;107001433;3107;2007-06-12;2007-07-11T09:42:23;2007-04-09;64;DAYS;M;;;3;3;Low Dose;;;;;
GLP003;DM;107001375;3108;2007-06-12;2007-07-11T09:42:29;2007-04-09;64;DAYS;M;;;3;3;Low Dose;;;;;
GLP003;DM;107001381;3109;2007-06-12;2007-07-11T09:42:34;2007-04-09;64;DAYS;M;;;3;3;Low Dose;;;;;
GLP003;DM;107001416;3110;2007-06-12;2007-07-11T09:42:42;2007-04-09;64;DAYS;M;;;3;3;Low Dose;;;;;
GLP003;DM;107001386;3111;2007-06-12;2007-07-24T09:56:34;2007-04-09;64;DAYS;M;;;3R;3;Recovery Low Dose;;;;;
GLP003;DM;107001379;3112;2007-06-12;2007-07-24T09:56:40;2007-04-09;64;DAYS;M;;;3R;3;Recovery Low Dose;;;;;
GLP003;DM;107001432;3113;2007-06-12;2007-07-24T09:56:46;2007-04-09;64;DAYS;M;;;3R;3;Recovery Low Dose;;;;;
GLP003;DM;107001478;3114;2007-06-12;2007-07-24T09:56:52;2007-04-09;64;DAYS;M;;;3R;3;Recovery Low Dose;;;;;
GLP003;DM;107001491;3115;2007-06-12;2007-07-24T09:56:57;2007-04-09;64;DAYS;M;;;3R;3;Recovery Low Dose;;;;;
GLP003;DM;107001570;3201;2007-06-14;2007-07-12T11:00:35;2007-04-09;66;DAYS;F;;;3;3;Low Dose;;;;;
GLP003;DM;107001618;3202;2007-06-14;2007-07-12T11:00:41;2007-04-09;66;DAYS;F;;;3;3;Low Dose;;;;;
GLP003;DM;107001520;3203;2007-06-14;2007-07-12T11:00:47;2007-04-09;66;DAYS;F;;;3;3;Low Dose;;;;;
GLP003;DM;107001553;3204;2007-06-14;2007-07-12T11:00:52;2007-04-09;66;DAYS;F;;;3;3;Low Dose;;;;;
GLP003;DM;107001540;3205;2007-06-14;2007-07-12T11:01:03;2007-04-09;66;DAYS;F;;;3;3;Low Dose;;;;;
GLP003;DM;107001562;3206;2007-06-14;2007-07-13T10:35:17;2007-04-09;66;DAYS;F;;;3;3;Low Dose;;;;;
GLP003;DM;107001631;3207;2007-06-14;2007-07-13T10:35:26;2007-04-09;66;DAYS;F;;;3;3;Low Dose;;;;;
GLP003;DM;107001499;3208;2007-06-14;2007-07-13T10:35:32;2007-04-09;66;DAYS;F;;;3;3;Low Dose;;;;;
GLP003;DM;107001552;3209;2007-06-14;2007-07-13T10:35:38;2007-04-09;66;DAYS;F;;;3;3;Low Dose;;;;;
GLP003;DM;107001505;3210;2007-06-14;2007-07-13T10:35:45;2007-04-09;66;DAYS;F;;;3;3;Low Dose;;;;;
GLP003;DM;107001637;3211;2007-06-14;2007-07-26T11:40:23;2007-04-09;66;DAYS;F;;;3R;3;Recovery Low Dose;;;;;
GLP003;DM;107001612;3212;2007-06-14;2007-07-26T11:40:29;2007-04-09;66;DAYS;F;;;3R;3;Recovery Low Dose;;;;;
GLP003;DM;107001574;3213;2007-06-14;2007-07-26T11:40:38;2007-04-09;66;DAYS;F;;;3R;3;Recovery Low Dose;;;;;
GLP003;DM;107001519;3214;2007-06-14;2007-07-26T11:40:47;2007-04-09;66;DAYS;F;;;3R;3;Recovery Low Dose;;;;;
GLP003;DM;107001589;3215;2007-06-14;2007-07-26T11:40:53;2007-04-09;66;DAYS;F;;;3R;3;Recovery Low Dose;;;;;
GLP003;DM;107001447;4101;2007-06-12;2007-07-10T11:34:15;2007-04-09;64;DAYS;M;;;4;4;Intermediate Dose;;;;;
GLP003;DM;107001414;4102;2007-06-12;2007-07-10T11:34:28;2007-04-09;64;DAYS;M;;;4;4;Intermediate Dose;;;;;
GLP003;DM;107001400;4103;2007-06-12;2007-07-10T11:34:34;2007-04-09;64;DAYS;M;;;4;4;Intermediate Dose;;;;;
GLP003;DM;107001454;4104;2007-06-12;2007-07-10T11:34:45;2007-04-09;64;DAYS;M;;;4;4;Intermediate Dose;;;;;
GLP003;DM;107001393;4105;2007-06-12;2007-07-10T11:34:51;2007-04-09;64;DAYS;M;;;4;4;Intermediate Dose;;;;;
GLP003;DM;107001355;4106;2007-06-12;2007-07-11T09:42:56;2007-04-09;64;DAYS;M;;;4;4;Intermediate Dose;;;;;
GLP003;DM;107001426;4107;2007-06-12;2007-07-11T09:43:01;2007-04-09;64;DAYS;M;;;4;4;Intermediate Dose;;;;;
GLP003;DM;107001424;4108;2007-06-12;2007-07-11T09:43:10;2007-04-09;64;DAYS;M;;;4;4;Intermediate Dose;;;;;
GLP003;DM;107001438;4109;2007-06-12;2007-07-11T09:43:20;2007-04-09;64;DAYS;M;;;4;4;Intermediate Dose;;;;;
GLP003;DM;107001404;4110;2007-06-12;2007-07-11T09:43:29;2007-04-09;64;DAYS;M;;;4;4;Intermediate Dose;;;;;
GLP003;DM;107001482;4111;2007-06-12;2007-07-24T09:57:03;2007-04-09;64;DAYS;M;;;4R;4;Recovery Intermediate Dose;;;;;
GLP003;DM;107001486;4112;2007-06-12;2007-07-24T09:57:08;2007-04-09;64;DAYS;M;;;4R;4;Recovery Intermediate Dose;;;;;
GLP003;DM;107001398;4113;2007-06-12;2007-07-24T09:57:18;2007-04-09;64;DAYS;M;;;4R;4;Recovery Intermediate Dose;;;;;
GLP003;DM;107001445;4114;2007-06-12;2007-07-24T09:57:25;2007-04-09;64;DAYS;M;;;4R;4;Recovery Intermediate Dose;;;;;
GLP003;DM;107001399;4115;2007-06-12;2007-07-24T09:57:31;2007-04-09;64;DAYS;M;;;4R;4;Recovery Intermediate Dose;;;;;
GLP003;DM;107001583;4201;2007-06-14;2007-07-12T11:01:10;2007-04-09;66;DAYS;F;;;4;4;Intermediate Dose;;;;;
GLP003;DM;107001517;4202;2007-06-14;2007-07-12T11:01:14;2007-04-09;66;DAYS;F;;;4;4;Intermediate Dose;;;;;
GLP003;DM;107001545;4203;2007-06-14;2007-07-12T11:01:23;2007-04-09;66;DAYS;F;;;4;4;Intermediate Dose;;;;;
GLP003;DM;107001547;4204;2007-06-14;2007-07-12T11:01:28;2007-04-09;66;DAYS;F;;;4;4;Intermediate Dose;;;;;
GLP003;DM;107001627;4205;2007-06-14;2007-07-12T11:01:34;2007-04-09;66;DAYS;F;;;4;4;Intermediate Dose;;;;;
GLP003;DM;107001565;4206;2007-06-14;2007-07-13T10:35:50;2007-04-09;66;DAYS;F;;;4;4;Intermediate Dose;;;;;
GLP003;DM;107001643;4207;2007-06-14;2007-07-13T10:35:55;2007-04-09;66;DAYS;F;;;4;4;Intermediate Dose;;;;;
GLP003;DM;107001515;4208;2007-06-14;2007-07-13T10:35:59;2007-04-09;66;DAYS;F;;;4;4;Intermediate Dose;;;;;
GLP003;DM;107001521;4209;2007-06-14;2007-07-13T10:36:09;2007-04-09;66;DAYS;F;;;4;4;Intermediate Dose;;;;;
GLP003;DM;107001508;4210;2007-06-14;2007-07-13T10:36:16;2007-04-09;66;DAYS;F;;;4;4;Intermediate Dose;;;;;
GLP003;DM;107001584;4211;2007-06-14;2007-07-26T11:40:59;2007-04-09;66;DAYS;F;;;4R;4;Recovery Intermediate Dose;;;;;
GLP003;DM;107001566;4212;2007-06-14;2007-07-26T11:41:09;2007-04-09;66;DAYS;F;;;4R;4;Recovery Intermediate Dose;;;;;
GLP003;DM;107001644;4213;2007-06-14;2007-07-26T11:41:17;2007-04-09;66;DAYS;F;;;4R;4;Recovery Intermediate Dose;;;;;
GLP003;DM;107001587;4214;2007-06-14;2007-07-26T11:41:25;2007-04-09;66;DAYS;F;;;4R;4;Recovery Intermediate Dose;;;;;
GLP003;DM;107001638;4215;2007-06-14;2007-07-26T11:41:37;2007-04-09;66;DAYS;F;;;4R;4;Recovery Intermediate Dose;;;;;
GLP003;DM;107001449;5101;2007-06-12;2007-07-10T11:34:58;2007-04-09;64;DAYS;M;;;5;5;High Dose;;;;;
GLP003;DM;107001392;5102;2007-06-12;2007-07-10T11:35:05;2007-04-09;64;DAYS;M;;;5;5;High Dose;;;;;
GLP003;DM;107001495;5103;2007-06-12;2007-07-10T11:35:11;2007-04-09;64;DAYS;M;;;5;5;High Dose;;;;;
GLP003;DM;107001391;5104;2007-06-12;2007-07-10T11:35:17;2007-04-09;64;DAYS;M;;;5;5;High Dose;;;;;
GLP003;DM;107001477;5105;2007-06-12;2007-07-10T11:35:22;2007-04-09;64;DAYS;M;;;5;5;High Dose;;;;;
GLP003;DM;107001369;5106;2007-06-12;2007-07-11T09:43:40;2007-04-09;64;DAYS;M;;;5;5;High Dose;;;;;
GLP003;DM;107001461;5107;2007-06-12;2007-07-11T09:45:57;2007-04-09;64;DAYS;M;;;5;5;High Dose;;;;;
GLP003;DM;107001376;5108;2007-06-12;2007-07-11T09:46:10;2007-04-09;64;DAYS;M;;;5;5;High Dose;;;;;
GLP003;DM;107001420;5109;2007-06-12;2007-07-11T09:46:20;2007-04-09;64;DAYS;M;;;5;5;High Dose;;;;;
GLP003;DM;107001350;5110;2007-06-12;2007-07-11T09:46:40;2007-04-09;64;DAYS;M;;;5;5;High Dose;;;;;
GLP003;DM;107001474;5111;2007-06-12;2007-07-24T09:57:41;2007-04-09;64;DAYS;M;;;5R;5;Recovery High Dose;;;;;
GLP003;DM;107001446;5112;2007-06-12;2007-07-24T09:57:48;2007-04-09;64;DAYS;M;;;5R;5;Recovery High Dose;;;;;
GLP003;DM;107001485;5113;2007-06-12;2007-07-24T09:58:00;2007-04-09;64;DAYS;M;;;5R;5;Recovery High Dose;;;;;
GLP003;DM;107001435;5114;2007-06-12;2007-07-24T09:58:20;2007-04-09;64;DAYS;M;;;5R;5;Recovery High Dose;;;;;
GLP003;DM;107001383;5115;2007-06-12;2007-07-24T09:58:27;2007-04-09;64;DAYS;M;;;5R;5;Recovery High Dose;;;;;
GLP003;DM;107001533;5201;2007-06-14;2007-07-12T11:01:39;2007-04-09;66;DAYS;F;;;5;5;High Dose;;;;;
GLP003;DM;107001617;5202;2007-06-14;2007-07-12T11:01:46;2007-04-09;66;DAYS;F;;;5;5;High Dose;;;;;
GLP003;DM;107001578;5203;2007-06-14;2007-07-12T11:01:51;2007-04-09;66;DAYS;F;;;5;5;High Dose;;;;;
GLP003;DM;107001571;5204;2007-06-14;2007-07-12T11:02:02;2007-04-09;66;DAYS;F;;;5;5;High Dose;;;;;
GLP003;DM;107001532;5205;2007-06-14;2007-07-12T11:02:07;2007-04-09;66;DAYS;F;;;5;5;High Dose;;;;;
GLP003;DM;107001522;5206;2007-06-14;2007-07-13T10:36:21;2007-04-09;66;DAYS;F;;;5;5;High Dose;;;;;
GLP003;DM;107001610;5207;2007-06-14;2007-07-13T10:36:34;2007-04-09;66;DAYS;F;;;5;5;High Dose;;;;;
GLP003;DM;107001504;5208;2007-06-14;2007-07-13T10:36:48;2007-04-09;66;DAYS;F;;;5;5;High Dose;;;;;
GLP003;DM;107001536;5209;2007-06-14;2007-07-13T10:36:58;2007-04-09;66;DAYS;F;;;5;5;High Dose;;;;;
GLP003;DM;107001633;5210;2007-06-14;2007-07-13T10:37:08;2007-04-09;66;DAYS;F;;;5;5;High Dose;;;;;
GLP003;DM;107001628;5211;2007-06-14;2007-07-26T11:41:42;2007-04-09;66;DAYS;F;;;5R;5;Recovery High Dose;;;;;
GLP003;DM;107001554;5212;2007-06-14;2007-07-26T11:41:48;2007-04-09;66;DAYS;F;;;5R;5;Recovery High Dose;;;;;
GLP003;DM;107001598;5213;2007-06-14;2007-07-26T11:41:53;2007-04-09;66;DAYS;F;;;5R;5;Recovery High Dose;;;;;
GLP003;DM;107001555;5214;2007-06-14;2007-07-26T11:42:01;2007-04-09;66;DAYS;F;;;5R;5;Recovery High Dose;;;;;
GLP003;DM;107001588;5215;2007-06-14;2007-07-26T11:42:08;2007-04-09;66;DAYS;F;;;5R;5;Recovery High Dose;;;;;
GLP003;DM;107001374;6101;2007-06-12;2007-07-10T14:30:55;2007-04-09;64;DAYS;M;;;1;6;Control Vehicle;;;;;
GLP003;DM;107001490;6102;2007-06-12;2007-07-10T14:31:01;2007-04-09;64;DAYS;M;;;1;6;Control Vehicle;;;;;
GLP003;DM;107001487;6103;2007-06-12;2007-07-10T14:31:07;2007-04-09;64;DAYS;M;;;1;6;Control Vehicle;;;;;
GLP003;DM;107001349;6104;2007-06-12;2007-07-10T14:31:12;2007-04-09;64;DAYS;M;;;1;6;Control Vehicle;;;;;
GLP003;DM;107001358;6105;2007-06-12;2007-07-10T14:31:20;2007-04-09;64;DAYS;M;;;1;6;Control Vehicle;;;;;
GLP003;DM;107001390;6106;2007-06-12;2007-07-10T14:31:25;2007-04-09;64;DAYS;M;;;1;6;Control Vehicle;;;;;
GLP003;DM;107001459;6107;2007-06-12;2007-07-10T14:31:30;2007-04-09;64;DAYS;M;;;1;6;Control Vehicle;;;;;
GLP003;DM;107001468;6108;2007-06-12;2007-07-10T14:31:35;2007-04-09;64;DAYS;M;;;1;6;Control Vehicle;;;;;
GLP003;DM;107001360;6109;2007-06-12;2007-07-10T14:31:43;2007-04-09;64;DAYS;M;;;1;6;Control Vehicle;;;;;
GLP003;DM;107001516;6201;2007-06-14;2007-07-12T11:04:23;2007-04-09;66;DAYS;F;;;1;6;Control Vehicle;;;;;
GLP003;DM;107001607;6202;2007-06-14;2007-07-12T11:04:28;2007-04-09;66;DAYS;F;;;1;6;Control Vehicle;;;;;
GLP003;DM;107001614;6203;2007-06-14;2007-06-17T11:04:10;2007-04-09;66;DAYS;F;;;1;6;Control Vehicle;;;;;
GLP003;DM;107001580;6204;2007-06-14;2007-07-12T11:04:33;2007-04-09;66;DAYS;F;;;1;6;Control Vehicle;;;;;
GLP003;DM;107001640;6205;2007-06-14;2007-07-12T11:04:37;2007-04-09;66;DAYS;F;;;1;6;Control Vehicle;;;;;
GLP003;DM;107001573;6206;2007-06-14;2007-07-12T11:04:43;2007-04-09;66;DAYS;F;;;1;6;Control Vehicle;;;;;
GLP003;DM;107001635;6207;2007-06-14;2007-07-12T11:04:48;2007-04-09;66;DAYS;F;;;1;6;Control Vehicle;;;;;
GLP003;DM;107001597;6208;2007-06-14;2007-07-12T11:04:53;2007-04-09;66;DAYS;F;;;1;6;Control Vehicle;;;;;
GLP003;DM;107001613;6209;2007-06-14;2007-07-12T11:04:58;2007-04-09;66;DAYS;F;;;1;6;Control Vehicle;;;;;
GLP003;DM;107001373;7101;2007-06-12;2007-07-10T14:31:48;2007-04-09;64;DAYS;M;;;2;7;Control Water;;;;;
GLP003;DM;107001481;7102;2007-06-12;2007-07-10T14:31:54;2007-04-09;64;DAYS;M;;;2;7;Control Water;;;;;
GLP003;DM;107001457;7103;2007-06-12;2007-07-10T14:32:03;2007-04-09;64;DAYS;M;;;2;7;Control Water;;;;;
GLP003;DM;107001418;7104;2007-06-12;2007-07-10T14:32:08;2007-04-09;64;DAYS;M;;;2;7;Control Water;;;;;
GLP003;DM;107001479;7105;2007-06-12;2007-07-10T14:32:13;2007-04-09;64;DAYS;M;;;2;7;Control Water;;;;;
GLP003;DM;107001498;7106;2007-06-12;2007-07-10T14:32:19;2007-04-09;64;DAYS;M;;;2;7;Control Water;;;;;
GLP003;DM;107001371;7107;2007-06-12;2007-07-10T14:32:24;2007-04-09;64;DAYS;M;;;2;7;Control Water;;;;;
GLP003;DM;107001489;7108;2007-06-12;2007-07-10T14:32:31;2007-04-09;64;DAYS;M;;;2;7;Control Water;;;;;
GLP003;DM;107001451;7109;2007-06-12;2007-07-10T14:32:37;2007-04-09;64;DAYS;M;;;2;7;Control Water;;;;;
GLP003;DM;107001542;7201;2007-06-14;2007-07-12T11:05:05;2007-04-09;66;DAYS;F;;;2;7;Control Water;;;;;
GLP003;DM;107001639;7202;2007-06-14;2007-07-12T11:05:10;2007-04-09;66;DAYS;F;;;2;7;Control Water;;;;;
GLP003;DM;107001577;7203;2007-06-14;2007-07-12T11:05:16;2007-04-09;66;DAYS;F;;;2;7;Control Water;;;;;
GLP003;DM;107001551;7204;2007-06-14;2007-07-12T11:05:23;2007-04-09;66;DAYS;F;;;2;7;Control Water;;;;;
GLP003;DM;107001603;7205;2007-06-14;2007-07-12T11:05:29;2007-04-09;66;DAYS;F;;;2;7;Control Water;;;;;
GLP003;DM;107001648;7206;2007-06-14;2007-07-12T11:05:34;2007-04-09;66;DAYS;F;;;2;7;Control Water;;;;;
GLP003;DM;107001626;7207;2007-06-14;2007-07-12T11:06:07;2007-04-09;66;DAYS;F;;;2;7;Control Water;;;;;
GLP003;DM;107001606;7208;2007-06-14;2007-07-12T11:05:58;2007-04-09;66;DAYS;F;;;2;7;Control Water;;;;;
GLP003;DM;107001600;7209;2007-06-14;2007-07-12T11:06:14;2007-04-09;66;DAYS;F;;;2;7;Control Water;;;;;
GLP003;DM;107001407;8101;2007-06-12;2007-07-10T14:32:45;2007-04-09;64;DAYS;M;;;3;8;Low Dose;;;;;
GLP003;DM;107001436;8102;2007-06-12;2007-07-10T14:32:50;2007-04-09;64;DAYS;M;;;3;8;Low Dose;;;;;
GLP003;DM;107001395;8103;2007-06-12;2007-07-10T14:32:56;2007-04-09;64;DAYS;M;;;3;8;Low Dose;;;;;
GLP003;DM;107001378;8104;2007-06-12;2007-07-10T14:33:02;2007-04-09;64;DAYS;M;;;3;8;Low Dose;;;;;
GLP003;DM;107001464;8105;2007-06-12;2007-07-10T14:33:10;2007-04-09;64;DAYS;M;;;3;8;Low Dose;;;;;
GLP003;DM;107001450;8106;2007-06-12;2007-07-10T14:33:16;2007-04-09;64;DAYS;M;;;3;8;Low Dose;;;;;
GLP003;DM;107001471;8107;2007-06-12;2007-07-10T14:33:21;2007-04-09;64;DAYS;M;;;3;8;Low Dose;;;;;
GLP003;DM;107001385;8108;2007-06-12;2007-07-10T14:33:26;2007-04-09;64;DAYS;M;;;3;8;Low Dose;;;;;
GLP003;DM;107001367;8109;2007-06-12;2007-07-10T14:33:33;2007-04-09;64;DAYS;M;;;3;8;Low Dose;;;;;
GLP003;DM;107001526;8201;2007-06-14;2007-07-12T11:06:20;2007-04-09;66;DAYS;F;;;3;8;Low Dose;;;;;
GLP003;DM;107001634;8202;2007-06-14;2007-07-12T11:06:25;2007-04-09;66;DAYS;F;;;3;8;Low Dose;;;;;
GLP003;DM;107001564;8203;2007-06-14;2007-07-12T11:06:31;2007-04-09;66;DAYS;F;;;3;8;Low Dose;;;;;
GLP003;DM;107001575;8204;2007-06-14;2007-07-12T11:06:37;2007-04-09;66;DAYS;F;;;3;8;Low Dose;;;;;
GLP003;DM;107001503;8205;2007-06-14;2007-07-12T11:06:43;2007-04-09;66;DAYS;F;;;3;8;Low Dose;;;;;
GLP003;DM;107001527;8206;2007-06-14;2007-07-12T11:06:48;2007-04-09;66;DAYS;F;;;3;8;Low Dose;;;;;
GLP003;DM;107001512;8207;2007-06-14;2007-07-12T11:06:54;2007-04-09;66;DAYS;F;;;3;8;Low Dose;;;;;
GLP003;DM;107001601;8208;2007-06-14;2007-07-12T11:06:59;2007-04-09;66;DAYS;F;;;3;8;Low Dose;;;;;
GLP003;DM;107001590;8209;2007-06-14;2007-07-12T11:07:03;2007-04-09;66;DAYS;F;;;3;8;Low Dose;;;;;
GLP003;DM;107001352;9101;2007-06-12;2007-07-10T14:33:38;2007-04-09;64;DAYS;M;;;4;9;Intermediate Dose;;;;;
GLP003;DM;107001406;9102;2007-06-12;2007-07-10T14:33:43;2007-04-09;64;DAYS;M;;;4;9;Intermediate Dose;;;;;
GLP003;DM;107001442;9103;2007-06-12;2007-07-10T14:33:47;2007-04-09;64;DAYS;M;;;4;9;Intermediate Dose;;;;;
GLP003;DM;107001429;9104;2007-06-12;2007-07-10T14:33:53;2007-04-09;64;DAYS;M;;;4;9;Intermediate Dose;;;;;
GLP003;DM;107001409;9105;2007-06-12;2007-07-10T14:33:58;2007-04-09;64;DAYS;M;;;4;9;Intermediate Dose;;;;;
GLP003;DM;107001430;9106;2007-06-12;2007-07-10T14:34:08;2007-04-09;64;DAYS;M;;;4;9;Intermediate Dose;;;;;
GLP003;DM;107001444;9107;2007-06-12;2007-07-10T14:34:15;2007-04-09;64;DAYS;M;;;4;9;Intermediate Dose;;;;;
GLP003;DM;107001354;9108;2007-06-12;2007-07-10T14:34:21;2007-04-09;64;DAYS;M;;;4;9;Intermediate Dose;;;;;
GLP003;DM;107001402;9109;2007-06-12;2007-07-10T14:34:26;2007-04-09;64;DAYS;M;;;4;9;Intermediate Dose;;;;;
GLP003;DM;107001557;9201;2007-06-14;2007-07-12T11:07:09;2007-04-09;66;DAYS;F;;;4;9;Intermediate Dose;;;;;
GLP003;DM;107001572;9202;2007-06-14;2007-07-12T11:07:14;2007-04-09;66;DAYS;F;;;4;9;Intermediate Dose;;;;;
GLP003;DM;107001632;9203;2007-06-14;2007-07-12T11:07:19;2007-04-09;66;DAYS;F;;;4;9;Intermediate Dose;;;;;
GLP003;DM;107001550;9204;2007-06-14;2007-07-12T11:07:24;2007-04-09;66;DAYS;F;;;4;9;Intermediate Dose;;;;;
GLP003;DM;107001593;9205;2007-06-14;2007-07-12T11:07:29;2007-04-09;66;DAYS;F;;;4;9;Intermediate Dose;;;;;
GLP003;DM;107001596;9206;2007-06-14;2007-07-12T11:07:33;2007-04-09;66;DAYS;F;;;4;9;Intermediate Dose;;;;;
GLP003;DM;107001642;9207;2007-06-14;2007-06-14T14:55:50;2007-04-09;66;DAYS;F;;;4;9;Intermediate Dose;;;;;
GLP003;DM;107001586;9208;2007-06-14;2007-07-12T11:07:39;2007-04-09;66;DAYS;F;;;4;9;Intermediate Dose;;;;;
GLP003;DM;107001546;9209;2007-06-14;2007-07-12T11:07:45;2007-04-09;66;DAYS;F;;;4;9;Intermediate Dose;;;;;
GLP003;DM;107001623;9210;2007-06-14;2007-07-12T11:07:50;2007-04-09;66;DAYS;F;;;4;9;Intermediate Dose;;;;;
GLP003;DM;107001405;10101;2007-06-12;2007-07-10T14:34:32;2007-04-09;64;DAYS;M;;;5;10;High Dose;;;;;
GLP003;DM;107001463;10102;2007-06-12;2007-07-10T14:34:39;2007-04-09;64;DAYS;M;;;5;10;High Dose;;;;;
GLP003;DM;107001494;10103;2007-06-12;2007-07-10T14:34:46;2007-04-09;64;DAYS;M;;;5;10;High Dose;;;;;
GLP003;DM;107001453;10104;2007-06-12;2007-07-10T14:34:58;2007-04-09;64;DAYS;M;;;5;10;High Dose;;;;;
GLP003;DM;107001448;10105;2007-06-12;2007-07-10T14:35:03;2007-04-09;64;DAYS;M;;;5;10;High Dose;;;;;
GLP003;DM;107001413;10106;2007-06-12;2007-07-10T14:35:09;2007-04-09;64;DAYS;M;;;5;10;High Dose;;;;;
GLP003;DM;107001476;10107;2007-06-12;2007-07-10T14:35:16;2007-04-09;64;DAYS;M;;;5;10;High Dose;;;;;
GLP003;DM;107001380;10108;2007-06-12;2007-07-10T14:35:22;2007-04-09;64;DAYS;M;;;5;10;High Dose;;;;;
GLP003;DM;107001417;10109;2007-06-12;2007-07-10T14:35:28;2007-04-09;64;DAYS;M;;;5;10;High Dose;;;;;
GLP003;DM;107001548;10201;2007-06-14;2007-07-12T11:07:55;2007-04-09;66;DAYS;F;;;5;10;High Dose;;;;;
GLP003;DM;107001523;10202;2007-06-14;2007-07-12T11:08:00;2007-04-09;66;DAYS;F;;;5;10;High Dose;;;;;
GLP003;DM;107001611;10203;2007-06-14;2007-07-12T11:08:04;2007-04-09;66;DAYS;F;;;5;10;High Dose;;;;;
GLP003;DM;107001502;10204;2007-06-14;2007-07-12T11:08:09;2007-04-09;66;DAYS;F;;;5;10;High Dose;;;;;
GLP003;DM;107001510;10205;2007-06-14;2007-07-12T11:08:14;2007-04-09;66;DAYS;F;;;5;10;High Dose;;;;;
GLP003;DM;107001509;10206;2007-06-14;2007-07-12T11:08:20;2007-04-09;66;DAYS;F;;;5;10;High Dose;;;;;
GLP003;DM;107001549;10207;2007-06-14;2007-07-12T11:08:25;2007-04-09;66;DAYS;F;;;5;10;High Dose;;;;;
GLP003;DM;107001605;10208;2007-06-14;2007-07-12T11:08:29;2007-04-09;66;DAYS;F;;;5;10;High Dose;;;;;
GLP003;DM;107001591;10209;2007-06-14;2007-07-12T11:08:35;2007-04-09;66;DAYS;F;;;5;10;High Dose;;;;;
Nimort-01;DM;Nimort-01-001;1;2012-02-06T07:00;2012-02-20T08:48;;;WEEKS;M;RAT;FISCHER 344;TRT;3;Treatment;;;2-4;2;
Nimort-01;DM;Nimort-01-002;2;2012-01-25T09:44;2012-01-31T08:56;;;WEEKS;F;RAT;FISCHER 344;TRT;3;Treatment;;;2-4;2;
Nimort-01;DM;Nimort-01-003;3;;;;;WEEKS;F;RAT;FISCHER 344;TRT;3;Treatment;;;2-4;3;
Nimort-01;DM;Nimort-01-004;4;2012-02-22T08:55;2012-03-05T09:36;;;WEEKS;F;RAT;FISCHER 344;TRT;3;Treatment;;;2-4;3;
Nimort-01;DM;Nimort-01-005;5;2012-01-29T08:43;2012-02-05T09:01;;;WEEKS;F;RAT;FISCHER 344;TRT;3;Treatment;;;2-4;4;
Nimort-01;DM;Nimort-01-006;6;;;;;WEEKS;F;RAT;FISCHER 344;TRT;3;Treatment;;;2-4;3;
Nimort-01;DM;Nimort-01-007;7;2012-01-29T09:31;2012-01-29T09:31;;;WEEKS;M;RAT;FISCHER 344;TRT;3;Treatment;;;2-4;2;
Nimort-01;DM;Nimort-01-008;8;2012-01-29T07:49;2012-02-11T07:59;;;WEEKS;M;RAT;FISCHER 344;TRT;3;Treatment;;;2-4;3;
Nimort-01;DM;Nimort-01-009;9;;;;;WEEKS;M;RAT;FISCHER 344;TRT;3;Treatment;;;2-4;1;
Nimort-01;DM;Nimort-01-010;10;2012-01-19T09:30;2012-01-19T09:30;;;WEEKS;F;RAT;FISCHER 344;TRT;3;Treatment;;;2-4;4;
Nimort-01;DM;Nimort-01-011;11;2012-02-01T09:44;2012-02-09T09:14;;;WEEKS;M;RAT;FISCHER 344;TRT;3;Treatment;;;2-4;4;
Nimort-01;DM;Nimort-01-012;12;;;;;WEEKS;F;RAT;FISCHER 344;TRT;3;Treatment;;;2-4;2;
Nimort-01;DM;Nimort-01-013;13;2012-02-10T08:19;2012-02-10T08:19;;;WEEKS;M;RAT;FISCHER 344;TRT;3;Treatment;;;2-4;4;
Nimort-01;DM;Nimort-01-014;14;2012-02-03T09:35;2012-02-03T09:35;;;WEEKS;M;RAT;FISCHER 344;TRT;3;Treatment;;;2-4;4;
Nimort-01;DM;Nimort-01-015;15;;;;;WEEKS;F;RAT;FISCHER 344;TRT;3;Treatment;;;2-4;3;
Nimort-01;DM;Nimort-01-016;16;2012-03-20T08:15;2012-03-20T08:15;;;WEEKS;F;RAT;FISCHER 344;TRT;3;Treatment;;;2-4;4;
Nimort-01;DM;Nimort-01-017;17;2012-01-30T09:01;2012-02-04T08:03;;;WEEKS;F;RAT;FISCHER 344;TRT;3;Treatment;;;2-4;3;
Nimort-01;DM;Nimort-01-018;18;;;;;WEEKS;F;RAT;FISCHER 344;TRT;3;Treatment;;;2-4;3;
Nimort-01;DM;Nimort-01-019;19;2012-02-04T08:28;2012-02-09T07:01;;;WEEKS;M;RAT;FISCHER 344;TRT;3;Treatment;;;2-4;4;
Nimort-01;DM;Nimort-01-020;20;2012-02-10T07:27;2012-02-20T07:36;;;WEEKS;F;RAT;FISCHER 344;TRT;3;Treatment;;;2-4;1;
Nimort-01;DM;Nimort-01-021;21;;;;;WEEKS;F;RAT;FISCHER 344;TRT;3;Treatment;;;2-4;2;
Nimort-01;DM;Nimort-01-022;22;2012-02-02T08:22;2012-02-11T07:26;;;WEEKS;F;RAT;FISCHER 344;TRT;3;Treatment;;;2-4;4;
Nimort-01;DM;Nimort-01-023;23;2012-01-22T07:34;2012-01-28T07:48;;;WEEKS;F;RAT;FISCHER 344;TRT;3;Treatment;;;2-4;2;
Nimort-01;DM;Nimort-01-024;24;;;;;WEEKS;F;RAT;FISCHER 344;TRT;3;Treatment;;;2-4;4;
Nimort-01;DM;Nimort-01-025;25;2012-01-29T09:43;2012-01-29T09:43;;;WEEKS;M;RAT;FISCHER 344;TRT;2;Treatment;;;2-4;1;
Nimort-01;DM;Nimort-01-026;26;2012-01-26T07:34;2012-02-09T09:28;;;WEEKS;M;RAT;FISCHER 344;TRT;2;Treatment;;;2-4;2;
Nimort-01;DM;Nimort-01-027;27;;;;;WEEKS;F;RAT;FISCHER 344;TRT;2;Treatment;;;2-4;4;
Nimort-01;DM;Nimort-01-028;28;2012-02-03T08:52;2012-02-16T09:45;;;WEEKS;F;RAT;FISCHER 344;TRT;2;Treatment;;;2-4;3;
Nimort-01;DM;Nimort-01-029;29;2012-01-28T07:23;2012-02-11T09:08;;;WEEKS;F;RAT;FISCHER 344;TRT;2;Treatment;;;2-4;3;
Nimort-01;DM;Nimort-01-030;30;;;;;WEEKS;F;RAT;FISCHER 344;TRT;2;Treatment;;;2-4;3;
Nimort-01;DM;Nimort-01-031;31;2012-02-04T09:05;2012-02-18T08:48;;;WEEKS;F;RAT;FISCHER 344;TRT;2;Treatment;;;2-4;2;
Nimort-01;DM;Nimort-01-032;32;2012-01-30T07:01;2012-02-13T08:30;;;WEEKS;F;RAT;FISCHER 344;TRT;2;Treatment;;;2-4;3;
Nimort-01;DM;Nimort-01-033;33;;;;;WEEKS;F;RAT;FISCHER 344;TRT;2;Treatment;;;2-4;3;
Nimort-01;DM;Nimort-01-034;34;2012-01-28T07:36;2012-02-04T07:51;;;WEEKS;M;RAT;FISCHER 344;TRT;2;Treatment;;;2-4;3;
Nimort-01;DM;Nimort-01-035;35;2012-01-29T07:20;2012-02-11T08:11;;;WEEKS;F;RAT;FISCHER 344;TRT;2;Treatment;;;2-4;1;
Nimort-01;DM;Nimort-01-036;36;;;;;WEEKS;F;RAT;FISCHER 344;TRT;2;Treatment;;;2-4;1;
Nimort-01;DM;Nimort-01-037;37;2012-02-03T07:59;2012-02-03T07:59;;;WEEKS;M;RAT;FISCHER 344;TRT;2;Treatment;;;2-4;3;
Nimort-01;DM;Nimort-01-038;38;2012-01-31T07:44;2012-02-14T09:24;;;WEEKS;M;RAT;FISCHER 344;TRT;2;Treatment;;;2-4;3;
Nimort-01;DM;Nimort-01-039;39;;;;;WEEKS;M;RAT;FISCHER 344;TRT;2;Treatment;;;2-4;4;
Nimort-01;DM;Nimort-01-040;40;2012-01-22T08:25;2012-02-03T08:43;;;WEEKS;F;RAT;FISCHER 344;TRT;2;Treatment;;;2-4;1;
Nimort-01;DM;Nimort-01-041;41;2012-02-05T08:38;2012-02-05T08:38;;;WEEKS;F;RAT;FISCHER 344;TRT;2;Treatment;;;2-4;4;
Nimort-01;DM;Nimort-01-042;42;;;;;WEEKS;M;RAT;FISCHER 344;TRT;2;Treatment;;;2-4;2;
Nimort-01;DM;Nimort-01-043;43;2012-01-23T09:37;2012-02-02T08:51;;;WEEKS;F;RAT;FISCHER 344;TRT;2;Treatment;;;2-4;4;
Nimort-01;DM;Nimort-01-044;44;2012-02-02T08:43;2012-02-03T08:39;;;WEEKS;M;RAT;FISCHER 344;TRT;2;Treatment;;;2-4;4;
Nimort-01;DM;Nimort-01-045;45;;;;;WEEKS;M;RAT;FISCHER 344;TRT;2;Treatment;;;2-4;1;
Nimort-01;DM;Nimort-01-046;46;2012-02-03T07:27;2012-02-10T09:17;;;WEEKS;M;RAT;FISCHER 344;TRT;2;Treatment;;;2-4;1;
Nimort-01;DM;Nimort-01-047;47;2012-01-20T07:29;2012-02-03T09:43;;;WEEKS;F;RAT;FISCHER 344;TRT;2;Treatment;;;2-4;4;
Nimort-01;DM;Nimort-01-048;48;;;;;WEEKS;M;RAT;FISCHER 344;TRT;2;Treatment;;;2-4;1;
Nimort-01;DM;Nimort-01-049;49;2012-01-30T09:36;2012-02-11T08:34;;;WEEKS;F;RAT;FISCHER 344;TRT;2;Treatment;;;2-4;2;
Nimort-01;DM;Nimort-01-050;50;2012-01-23T07:36;2012-02-02T09:44;;;WEEKS;F;RAT;FISCHER 344;TRT;2;Treatment;;;2-4;2;
Nimort-01;DM;Nimort-01-051;51;;;;;WEEKS;M;RAT;FISCHER 344;PLAC;1;Placebo;;;2-4;4;
Nimort-01;DM;Nimort-01-052;52;2012-01-28T09:42;2012-02-08T08:40;;;WEEKS;M;RAT;FISCHER 344;PLAC;1;Placebo;;;2-4;3;
Nimort-01;DM;Nimort-01-053;53;2012-01-24T09:04;2012-02-03T08:27;;;WEEKS;F;RAT;FISCHER 344;PLAC;1;Placebo;;;2-4;3;
Nimort-01;DM;Nimort-01-054;54;;;;;WEEKS;F;RAT;FISCHER 344;PLAC;1;Placebo;;;2-4;2;
Nimort-01;DM;Nimort-01-055;55;2012-01-26T07:37;2012-02-09T09:44;;;WEEKS;M;RAT;FISCHER 344;PLAC;1;Placebo;;;2-4;2;
Nimort-01;DM;Nimort-01-056;56;2012-02-08T08:06;2012-02-08T08:06;;;WEEKS;M;RAT;FISCHER 344;PLAC;1;Placebo;;;2-4;3;
Nimort-01;DM;Nimort-01-057;57;;;;;WEEKS;F;RAT;FISCHER 344;PLAC;1;Placebo;;;2-4;2;
Nimort-01;DM;Nimort-01-058;58;2012-02-03T09:17;2012-02-03T09:17;;;WEEKS;M;RAT;FISCHER 344;PLAC;1;Placebo;;;2-4;4;
Nimort-01;DM;Nimort-01-059;59;2012-02-06T08:40;2012-02-20T07:18;;;WEEKS;F;RAT;FISCHER 344;PLAC;1;Placebo;;;2-4;2;
Nimort-01;DM;Nimort-01-060;60;;;;;WEEKS;M;RAT;FISCHER 344;PLAC;1;Placebo;;;2-4;3;
Nimort-01;DM;Nimort-01-061;61;2012-02-07T08:46;2012-02-21T08:33;;;WEEKS;F;RAT;FISCHER 344;PLAC;1;Placebo;;;2-4;4;
Nimort-01;DM;Nimort-01-062;62;2012-01-28T07:44;2012-02-09T08:58;;;WEEKS;F;RAT;FISCHER 344;PLAC;1;Placebo;;;2-4;1;
Nimort-01;DM;Nimort-01-063;63;;;;;WEEKS;F;RAT;FISCHER 344;PLAC;1;Placebo;;;2-4;2;
Nimort-01;DM;Nimort-01-064;64;2012-01-28T08:14;2012-02-04T08:46;;;WEEKS;F;RAT;FISCHER 344;PLAC;1;Placebo;;;2-4;4;
Nimort-01;DM;Nimort-01-065;65;2012-01-30T09:41;2012-02-13T09:45;;;WEEKS;F;RAT;FISCHER 344;PLAC;1;Placebo;;;2-4;3;
Nimort-01;DM;Nimort-01-066;66;;;;;WEEKS;F;RAT;FISCHER 344;PLAC;1;Placebo;;;2-4;1;
Nimort-01;DM;Nimort-01-067;67;2012-01-24T09:43;2012-01-24T09:43;;;WEEKS;M;RAT;FISCHER 344;PLAC;1;Placebo;;;2-4;3;
Nimort-01;DM;Nimort-01-068;68;2012-02-02T07:58;2012-02-16T09:39;;;WEEKS;F;RAT;FISCHER 344;PLAC;1;Placebo;;;2-4;4;
Nimort-01;DM;Nimort-01-069;69;;;;;WEEKS;M;RAT;FISCHER 344;PLAC;1;Placebo;;;2-4;1;
Nimort-01;DM;Nimort-01-070;70;2012-02-10T09:14;2012-02-18T09:32;;;WEEKS;F;RAT;FISCHER 344;PLAC;1;Placebo;;;2-4;3;
Nimort-01;DM;Nimort-01-071;71;2012-02-11T09:25;2012-02-11T09:25;;;WEEKS;M;RAT;FISCHER 344;PLAC;1;Placebo;;;2-4;2;
Nimort-01;DM;Nimort-01-072;72;;;;;WEEKS;F;RAT;FISCHER 344;PLAC;1;Placebo;;;2-4;2;
Nimort-01;DM;Nimort-01-073;73;2012-02-09T08:10;2012-02-19T09:27;;;WEEKS;F;RAT;FISCHER 344;PLAC;1;Placebo;;;2-4;3;
Nimort-01;DM;Nimort-01-074;74;2012-02-10T09:21;2012-02-10T09:21;;;WEEKS;F;RAT;FISCHER 344;PLAC;1;Placebo;;;2-4;2;
Nimort-01;DM;Nimort-01-075;75;;;;;WEEKS;M;RAT;FISCHER 344;PLAC;1;Placebo;;;2-4;1;
Nimort-01;DM;Nimort-01-076;76;2012-02-04T08:43;2012-02-10T07:48;;;WEEKS;F;RAT;FISCHER 344;PLAC;1;Placebo;;;2-4;1;
Nimort-01;DM;Nimort-01-077;77;2012-01-21T08:16;2012-02-03T09:31;;;WEEKS;M;RAT;FISCHER 344;PLAC;1;Placebo;;;2-4;1;
Nimort-01;DM;Nimort-01-078;78;;;;;WEEKS;F;RAT;FISCHER 344;PLAC;1;Placebo;;;2-4;2;
Nimort-01;DM;Nimort-01-079;79;2012-02-05T08:12;2012-02-14T09:01;;;WEEKS;M;RAT;FISCHER 344;PLAC;1;Placebo;;;2-4;4;
Nimort-01;DM;Nimort-01-080;80;2012-02-07T07:34;2012-02-21T07:04;;;WEEKS;M;RAT;FISCHER 344;PLAC;1;Placebo;;;2-4;4;
Nimort-01;DM;Nimort-01-081;81;;;;;WEEKS;F;RAT;FISCHER 344;PLAC;1;Placebo;;;2-4;1;
Nimort-01;DM;Nimort-01-082;82;2012-01-30T07:47;2012-02-10T07:02;;;WEEKS;M;RAT;FISCHER 344;PLAC;1;Placebo;;;2-4;2;
Nimort-01;DM;Nimort-01-083;83;2012-02-01T08:21;2012-02-01T08:21;;;WEEKS;F;RAT;FISCHER 344;PLAC;1;Placebo;;;2-4;3;
Nimort-01;DM;Nimort-01-084;84;;;;;WEEKS;F;RAT;FISCHER 344;PLAC;1;Placebo;;;2-4;3;
Nimort-01;DM;Nimort-01-085;85;2012-02-27T08:19;2012-02-27T08:19;;;WEEKS;F;RAT;FISCHER 344;PLAC;1;Placebo;;;2-4;2;
Nimort-01;DM;Nimort-01-086;86;2012-01-22T09:14;2012-02-05T09:22;;;WEEKS;F;RAT;FISCHER 344;PLAC;1;Placebo;;;2-4;3;
Nimort-01;DM;Nimort-01-087;87;;;;;WEEKS;F;RAT;FISCHER 344;PLAC;1;Placebo;;;2-4;4;
Nimort-01;DM;Nimort-01-088;88;2012-02-05T08:03;2012-02-13T08:41;;;WEEKS;M;RAT;FISCHER 344;PLAC;1;Placebo;;;2-4;3;
Nimort-01;DM;Nimort-01-089;89;2012-01-29T09:34;2012-02-12T09:27;;;WEEKS;F;RAT;FISCHER 344;PLAC;1;Placebo;;;2-4;3;
Nimort-01;DM;Nimort-01-090;90;;;;;WEEKS;F;RAT;FISCHER 344;PLAC;1;Placebo;;;2-4;1;
Nimort-01;DM;Nimort-01-091;91;2012-02-05T07:45;2012-02-05T07:45;;;WEEKS;F;RAT;FISCHER 344;PLAC;1;Placebo;;;2-4;4;
Nimort-01;DM;Nimort-01-092;92;2012-01-22T08:12;2012-01-22T08:12;;;WEEKS;F;RAT;FISCHER 344;PLAC;1;Placebo;;;2-4;2;
Nimort-01;DM;Nimort-01-093;93;;;;;WEEKS;F;RAT;FISCHER 344;PLAC;1;Placebo;;;2-4;1;
Nimort-01;DM;Nimort-01-094;94;2012-01-23T09:18;2012-01-30T09:37;;;WEEKS;F;RAT;FISCHER 344;PLAC;1;Placebo;;;2-4;3;
Nimort-01;DM;Nimort-01-095;95;2012-02-08T08:11;2012-02-08T08:11;;;WEEKS;F;RAT;FISCHER 344;PLAC;1;Placebo;;;2-4;3;
Nimort-01;DM;Nimort-01-096;96;;;;;WEEKS;M;RAT;FISCHER 344;PLAC;1;Placebo;;;2-4;4;
Nimort-01;DM;Nimort-01-097;97;2012-03-18T07:46;2012-03-30T09:36;;;WEEKS;F;RAT;FISCHER 344;PLAC;1;Placebo;;;2-4;2;
Nimort-01;DM;Nimort-01-098;98;2012-01-21T07:45;2012-02-02T08:33;;;WEEKS;F;RAT;FISCHER 344;PLAC;1;Placebo;;;2-4;2;
Nimort-01;DM;Nimort-01-099;99;;;;;WEEKS;M;RAT;FISCHER 344;PLAC;1;Placebo;;;2-4;1;
Nimort-01;DM;Nimort-01-100;100;2012-01-28T08:36;2012-01-28T08:36;;;WEEKS;M;RAT;FISCHER 344;PLAC;1;Placebo;;;2-4;2;
PDS2014;DM;PDS2014-0001;1;2010-12-11;2011-01-09;;0;DAYS;M;RAT;SPRAGUE-DAWLEY;01;01;M - Vehicle;;;;;
PDS2014;DM;PDS2014-0002;2;2010-12-11;2011-01-09;;0;DAYS;M;RAT;SPRAGUE-DAWLEY;01;01;M - Vehicle;;;;;
PDS2014;DM;PDS2014-0003;3;2010-12-11;2011-01-09;;0;DAYS;M;RAT;SPRAGUE-DAWLEY;01;01;M - Vehicle;;;;;
PDS2014;DM;PDS2014-0004;4;2010-12-11;2011-01-09;;0;DAYS;M;RAT;SPRAGUE-DAWLEY;01;01;M - Vehicle;;;;;
PDS2014;DM;PDS2014-0005;5;2010-12-11;2011-01-09;;0;DAYS;M;RAT;SPRAGUE-DAWLEY;01;01;M - Vehicle;;;;;
PDS2014;DM;PDS2014-0006;6;2010-12-11;2011-01-10;;0;DAYS;M;RAT;SPRAGUE-DAWLEY;01;01;M - Vehicle;;;;;
PDS2014;DM;PDS2014-0007;7;2010-12-11;2011-01-10;;0;DAYS;M;RAT;SPRAGUE-DAWLEY;01;01;M - Vehicle;;;;;
PDS2014;DM;PDS2014-0008;8;2010-12-11;2011-01-10;;0;DAYS;M;RAT;SPRAGUE-DAWLEY;01;01;M - Vehicle;;;;;
PDS2014;DM;PDS2014-0009;9;2010-12-11;2011-01-10;;0;DAYS;M;RAT;SPRAGUE-DAWLEY;01;01;M - Vehicle;;;;;
PDS2014;DM;PDS2014-0010;10;2010-12-11;2011-01-10;;0;DAYS;M;RAT;SPRAGUE-DAWLEY;01;01;M - Vehicle;;;;;
PDS2014;DM;PDS2014-0011;11;2010-12-11;2011-02-06;;0;DAYS;M;RAT;SPRAGUE-DAWLEY;02;02;M - Vehicle - with recovery;;;;;
PDS2014;DM;PDS2014-0012;12;2010-12-11;2011-02-06;;0;DAYS;M;RAT;SPRAGUE-DAWLEY;02;02;M - Vehicle - with recovery;;;;;
PDS2014;DM;PDS2014-0013;13;2010-12-11;2011-02-06;;0;DAYS;M;RAT;SPRAGUE-DAWLEY;02;02;M - Vehicle - with recovery;;;;;
PDS2014;DM;PDS2014-0014;14;2010-12-11;2011-02-06;;0;DAYS;M;RAT;SPRAGUE-DAWLEY;02;02;M - Vehicle - with recovery;;;;;
PDS2014;DM;PDS2014-0015;15;2010-12-11;2011-02-06;;0;DAYS;M;RAT;SPRAGUE-DAWLEY;02;02;M - Vehicle - with recovery;;;;;
PDS2014;DM;PDS2014-0016;16;2010-12-11;2011-01-09;;0;DAYS;M;RAT;SPRAGUE-DAWLEY;01;03;M - Vehicle;;;;;
PDS2014;DM;PDS2014-0017;17;2010-12-11;2011-01-09;;0;DAYS;M;RAT;SPRAGUE-DAWLEY;01;03;M - Vehicle;;;;;
PDS2014;DM;PDS2014-0018;18;2010-12-11;2011-01-09;;0;DAYS;M;RAT;SPRAGUE-DAWLEY;01;03;M - Vehicle;;;;;
PDS2014;DM;PDS2014-0021;21;2010-12-11;2011-01-09;;0;DAYS;M;RAT;SPRAGUE-DAWLEY;03;04;M - Low;;;;;
PDS2014;DM;PDS2014-0022;22;2010-12-11;2011-01-09;;0;DAYS;M;RAT;SPRAGUE-DAWLEY;03;04;M - Low;;;;;
PDS2014;DM;PDS2014-0023;23;2010-12-11;2011-01-09;;0;DAYS;M;RAT;SPRAGUE-DAWLEY;03;04;M - Low;;;;;
PDS2014;DM;PDS2014-0024;24;2010-12-11;2011-01-09;;0;DAYS;M;RAT;SPRAGUE-DAWLEY;03;04;M - Low;;;;;
PDS2014;DM;PDS2014-0025;25;2010-12-11;2011-01-09;;0;DAYS;M;RAT;SPRAGUE-DAWLEY;03;04;M - Low;;;;;
PDS2014;DM;PDS2014-0026;26;2010-12-11;2011-01-10;;0;DAYS;M;RAT;SPRAGUE-DAWLEY;03;04;M - Low;;;;;
PDS2014;DM;PDS2014-0027;27;2010-12-11;2011-01-10;;0;DAYS;M;RAT;SPRAGUE-DAWLEY;03;04;M - Low;;;;;
PDS2014;DM;PDS2014-0028;28;2010-12-11;2011-01-10;;0;DAYS;M;RAT;SPRAGUE-DAWLEY;03;04;M - Low;;;;;
PDS2014;DM;PDS2014-0029;29;2010-12-11;2011-01-10;;0;DAYS;M;RAT;SPRAGUE-DAWLEY;03;04;M - Low;;;;;
PDS2014;DM;PDS2014-0030;30;2010-12-11;2011-01-10;;0;DAYS;M;RAT;SPRAGUE-DAWLEY;03;04;M - Low;;;;;
PDS2014;DM;PDS2014-0031;31;2010-12-11;2011-01-09;;0;DAYS;M;RAT;SPRAGUE-DAWLEY;03;05;M - Low;;;;;
PDS2014;DM;PDS2014-0032;32;2010-12-11;2011-01-09;;0;DAYS;M;RAT;SPRAGUE-DAWLEY;03;05;M - Low;;;;;
PDS2014;DM;PDS2014-0033;33;2010-12-11;2011-01-09;;0;DAYS;M;RAT;SPRAGUE-DAWLEY;03;05;M - Low;;;;;
PDS2014;DM;PDS2014-0041;41;2010-12-11;2011-01-09;;0;DAYS;M;RAT;SPRAGUE-DAWLEY;04;06;M - Medium;;;;;
PDS2014;DM;PDS2014-0042;42;2010-12-11;2011-01-09;;0;DAYS;M;RAT;SPRAGUE-DAWLEY;04;06;M - Medium;;;;;
PDS2014;DM;PDS2014-0043;43;2010-12-11;2011-01-09;;0;DAYS;M;RAT;SPRAGUE-DAWLEY;04;06;M - Medium;;;;;
PDS2014;DM;PDS2014-0044;44;2010-12-11;2011-01-09;;0;DAYS;M;RAT;SPRAGUE-DAWLEY;04;06;M - Medium;;;;;
PDS2014;DM;PDS2014-0045;45;2010-12-11;2011-01-09;;0;DAYS;M;RAT;SPRAGUE-DAWLEY;04;06;M - Medium;;;;;
PDS2014;DM;PDS2014-0046;46;2010-12-11;2011-01-10;;0;DAYS;M;RAT;SPRAGUE-DAWLEY;04;06;M - Medium;;;;;
PDS2014;DM;PDS2014-0047;47;2010-12-11;2011-01-10;;0;DAYS;M;RAT;SPRAGUE-DAWLEY;04;06;M - Medium;;;;;
PDS2014;DM;PDS2014-0048;48;2010-12-11;2011-01-10;;0;DAYS;M;RAT;SPRAGUE-DAWLEY;04;06;M - Medium;;;;;
PDS2014;DM;PDS2014-0049;49;2010-12-11;2011-01-10;;0;DAYS;M;RAT;SPRAGUE-DAWLEY;04;06;M - Medium;;;;;
PDS2014;DM;PDS2014-0050;50;2010-12-11;2011-01-10;;0;DAYS;M;RAT;SPRAGUE-DAWLEY;04;06;M - Medium;;;;;
PDS2014;DM;PDS2014-0051;51;2010-12-11;2011-01-09;;0;DAYS;M;RAT;SPRAGUE-DAWLEY;04;07;M - Medium;;;;;
PDS2014;DM;PDS2014-0052;52;2010-12-11;2011-01-09;;0;DAYS;M;RAT;SPRAGUE-DAWLEY;04;07;M - Medium;;;;;
PDS2014;DM;PDS2014-0053;53;2010-12-11;2011-01-09;;0;DAYS;M;RAT;SPRAGUE-DAWLEY;04;07;M - Medium;;;;;
PDS2014;DM;PDS2014-0061;61;2010-12-11;2011-01-09;;0;DAYS;M;RAT;SPRAGUE-DAWLEY;05;08;M - High;;;;;
PDS2014;DM;PDS2014-0062;62;2010-12-11;2011-01-09;;0;DAYS;M;RAT;SPRAGUE-DAWLEY;05;08;M - High;;;;;
PDS2014;DM;PDS2014-0063;63;2010-12-11;2011-01-09;;0;DAYS;M;RAT;SPRAGUE-DAWLEY;05;08;M - High;;;;;
PDS2014;DM;PDS2014-0064;64;2010-12-11;2011-01-09;;0;DAYS;M;RAT;SPRAGUE-DAWLEY;05;08;M - High;;;;;
PDS2014;DM;PDS2014-0065;65;2010-12-11;2011-01-09;;0;DAYS;M;RAT;SPRAGUE-DAWLEY;05;08;M - High;;;;;
PDS2014;DM;PDS2014-0066;66;2010-12-11;2011-01-10;;0;DAYS;M;RAT;SPRAGUE-DAWLEY;05;08;M - High;;;;;
PDS2014;DM;PDS2014-0067;67;2010-12-11;2011-01-10;;0;DAYS;M;RAT;SPRAGUE-DAWLEY;05;08;M - High;;;;;
PDS2014;DM;PDS2014-0068;68;2010-12-11;2011-01-10;;0;DAYS;M;RAT;SPRAGUE-DAWLEY;05;08;M - High;;;;;
PDS2014;DM;PDS2014-0069;69;2010-12-11;2011-01-10;;0;DAYS;M;RAT;SPRAGUE-DAWLEY;05;08;M - High;;;;;
PDS2014;DM;PDS2014-0070;70;2010-12-11;2011-01-10;;0;DAYS;M;RAT;SPRAGUE-DAWLEY;05;08;M - High;;;;;
PDS2014;DM;PDS2014-0071;71;2010-12-11;2011-02-06;;0;DAYS;M;RAT;SPRAGUE-DAWLEY;06;09;M - High - with recovery;;;;;
PDS2014;DM;PDS2014-0072;72;2010-12-11;2011-02-06;;0;DAYS;M;RAT;SPRAGUE-DAWLEY;06;09;M - High - with recovery;;;;;
PDS2014;DM;PDS2014-0073;73;2010-12-11;2011-02-06;;0;DAYS;M;RAT;SPRAGUE-DAWLEY;06;09;M - High - with recovery;;;;;
PDS2014;DM;PDS2014-0074;74;2010-12-11;2011-02-06;;0;DAYS;M;RAT;SPRAGUE-DAWLEY;06;09;M - High - with recovery;;;;;
PDS2014;DM;PDS2014-0075;75;2010-12-11;2011-02-06;;0;DAYS;M;RAT;SPRAGUE-DAWLEY;06;09;M - High - with recovery;;;;;
PDS2014;DM;PDS2014-0076;76;2010-12-11;2011-01-11;;0;DAYS;M;RAT;SPRAGUE-DAWLEY;05;10;M - High;;;;;
PDS2014;DM;PDS2014-0077;77;2010-12-11;2011-01-11;;0;DAYS;M;RAT;SPRAGUE-DAWLEY;05;10;M - High;;;;;
PDS2014;DM;PDS2014-0078;78;2010-12-11;2011-01-11;;0;DAYS;M;RAT;SPRAGUE-DAWLEY;05;10;M - High;;;;;
PDS2014;DM;PDS2014-0101;101;2010-12-11;2011-01-09;;0;DAYS;F;RAT;SPRAGUE-DAWLEY;09;13;F - Vehicle;;;;;
PDS2014;DM;PDS2014-0102;102;2010-12-11;2011-01-09;;0;DAYS;F;RAT;SPRAGUE-DAWLEY;09;13;F - Vehicle;;;;;
PDS2014;DM;PDS2014-0103;103;2010-12-11;2011-01-09;;0;DAYS;F;RAT;SPRAGUE-DAWLEY;09;13;F - Vehicle;;;;;
PDS2014;DM;PDS2014-0104;104;2010-12-11;2011-01-09;;0;DAYS;F;RAT;SPRAGUE-DAWLEY;09;13;F - Vehicle;;;;;
PDS2014;DM;PDS2014-0105;105;2010-12-11;2011-01-09;;0;DAYS;F;RAT;SPRAGUE-DAWLEY;09;13;F - Vehicle;;;;;
PDS2014;DM;PDS2014-0106;106;2010-12-11;2011-01-10;;0;DAYS;F;RAT;SPRAGUE-DAWLEY;09;13;F - Vehicle;;;;;
PDS2014;DM;PDS2014-0107;107;2010-12-11;2011-01-10;;0;DAYS;F;RAT;SPRAGUE-DAWLEY;09;13;F - Vehicle;;;;;
PDS2014;DM;PDS2014-0108;108;2010-12-11;2011-01-10;;0;DAYS;F;RAT;SPRAGUE-DAWLEY;09;13;F - Vehicle;;;;;
PDS2014;DM;PDS2014-0109;109;2010-12-11;2011-01-10;;0;DAYS;F;RAT;SPRAGUE-DAWLEY;09;13;F - Vehicle;;;;;
PDS2014;DM;PDS2014-0110;110;2010-12-11;2011-01-10;;0;DAYS;F;RAT;SPRAGUE-DAWLEY;09;13;F - Vehicle;;;;;
PDS2014;DM;PDS2014-0111;111;2010-12-11;2011-02-06;;0;DAYS;F;RAT;SPRAGUE-DAWLEY;10;14;F - Vehicle - with recovery;;;;;
PDS2014;DM;PDS2014-0112;112;2010-12-11;2011-02-06;;0;DAYS;F;RAT;SPRAGUE-DAWLEY;10;14;F - Vehicle - with recovery;;;;;
PDS2014;DM;PDS2014-0113;113;2010-12-11;2011-02-06;;0;DAYS;F;RAT;SPRAGUE-DAWLEY;10;14;F - Vehicle - with recovery;;;;;
PDS2014;DM;PDS2014-0114;114;2010-12-11;2011-02-06;;0;DAYS;F;RAT;SPRAGUE-DAWLEY;10;14;F - Vehicle - with recovery;;;;;
PDS2014;DM;PDS2014-0115;115;2010-12-11;2011-02-06;;0;DAYS;F;RAT;SPRAGUE-DAWLEY;10;14;F - Vehicle - with recovery;;;;;
PDS2014;DM;PDS2014-0119;119;2010-12-11;2010-12-13;;0;DAYS;F;RAT;SPRAGUE-DAWLEY;09;15;F - Vehicle;;;;;
PDS2014;DM;PDS2014-0117;117;2010-12-11;2011-01-09;;0;DAYS;F;RAT;SPRAGUE-DAWLEY;09;15;F - Vehicle;;;;;
PDS2014;DM;PDS2014-0118;118;2010-12-11;2011-01-09;;0;DAYS;F;RAT;SPRAGUE-DAWLEY;09;15;F - Vehicle;;;;;
PDS2014;DM;PDS2014-0121;121;2010-12-11;2011-01-09;;0;DAYS;F;RAT;SPRAGUE-DAWLEY;11;16;F - Low;;;;;
PDS2014;DM;PDS2014-0122;122;2010-12-11;2011-01-09;;0;DAYS;F;RAT;SPRAGUE-DAWLEY;11;16;F - Low;;;;;
PDS2014;DM;PDS2014-0123;123;2010-12-11;2011-01-09;;0;DAYS;F;RAT;SPRAGUE-DAWLEY;11;16;F - Low;;;;;
PDS2014;DM;PDS2014-0124;124;2010-12-11;2011-01-09;;0;DAYS;F;RAT;SPRAGUE-DAWLEY;11;16;F - Low;;;;;
PDS2014;DM;PDS2014-0125;125;2010-12-11;2011-01-09;;0;DAYS;F;RAT;SPRAGUE-DAWLEY;11;16;F - Low;;;;;
PDS2014;DM;PDS2014-0126;126;2010-12-11;2011-01-10;;0;DAYS;F;RAT;SPRAGUE-DAWLEY;11;16;F - Low;;;;;
PDS2014;DM;PDS2014-0127;127;2010-12-11;2011-01-10;;0;DAYS;F;RAT;SPRAGUE-DAWLEY;11;16;F - Low;;;;;
PDS2014;DM;PDS2014-0128;128;2010-12-11;2011-01-10;;0;DAYS;F;RAT;SPRAGUE-DAWLEY;11;16;F - Low;;;;;
PDS2014;DM;PDS2014-0129;129;2010-12-11;2011-01-10;;0;DAYS;F;RAT;SPRAGUE-DAWLEY;11;16;F - Low;;;;;
PDS2014;DM;PDS2014-0130;130;2010-12-11;2011-01-10;;0;DAYS;F;RAT;SPRAGUE-DAWLEY;11;16;F - Low;;;;;
PDS2014;DM;PDS2014-0131;131;2010-12-11;2011-01-09;;0;DAYS;F;RAT;SPRAGUE-DAWLEY;11;17;F - Low;;;;;
PDS2014;DM;PDS2014-0132;132;2010-12-11;2011-01-09;;0;DAYS;F;RAT;SPRAGUE-DAWLEY;11;17;F - Low;;;;;
PDS2014;DM;PDS2014-0133;133;2010-12-11;2011-01-09;;0;DAYS;F;RAT;SPRAGUE-DAWLEY;11;17;F - Low;;;;;
PDS2014;DM;PDS2014-0141;141;2010-12-11;2011-01-09;;0;DAYS;F;RAT;SPRAGUE-DAWLEY;12;18;F - Medium;;;;;
PDS2014;DM;PDS2014-0142;142;2010-12-11;2011-01-09;;0;DAYS;F;RAT;SPRAGUE-DAWLEY;12;18;F - Medium;;;;;
PDS2014;DM;PDS2014-0143;143;2010-12-11;2011-01-09;;0;DAYS;F;RAT;SPRAGUE-DAWLEY;12;18;F - Medium;;;;;
PDS2014;DM;PDS2014-0144;144;2010-12-11;2011-01-09;;0;DAYS;F;RAT;SPRAGUE-DAWLEY;12;18;F - Medium;;;;;
PDS2014;DM;PDS2014-0145;145;2010-12-11;2011-01-09;;0;DAYS;F;RAT;SPRAGUE-DAWLEY;12;18;F - Medium;;;;;
PDS2014;DM;PDS2014-0146;146;2010-12-11;2011-01-10;;0;DAYS;F;RAT;SPRAGUE-DAWLEY;12;18;F - Medium;;;;;
PDS2014;DM;PDS2014-0147;147;2010-12-11;2011-01-10;;0;DAYS;F;RAT;SPRAGUE-DAWLEY;12;18;F - Medium;;;;;
PDS2014;DM;PDS2014-0148;148;2010-12-11;2011-01-10;;0;DAYS;F;RAT;SPRAGUE-DAWLEY;12;18;F - Medium;;;;;
PDS2014;DM;PDS2014-0149;149;2010-12-11;2011-01-10;;0;DAYS;F;RAT;SPRAGUE-DAWLEY;12;18;F - Medium;;;;;
PDS2014;DM;PDS2014-0150;150;2010-12-11;2011-01-10;;0;DAYS;F;RAT;SPRAGUE-DAWLEY;12;18;F - Medium;;;;;
PDS2014;DM;PDS2014-0151;151;2010-12-11;2011-01-09;;0;DAYS;F;RAT;SPRAGUE-DAWLEY;12;19;F - Medium;;;;;
PDS2014;DM;PDS2014-0152;152;2010-12-11;2011-01-09;;0;DAYS;F;RAT;SPRAGUE-DAWLEY;12;19;F - Medium;;;;;
PDS2014;DM;PDS2014-0153;153;2010-12-11;2011-01-09;;0;DAYS;F;RAT;SPRAGUE-DAWLEY;12;19;F - Medium;;;;;
PDS2014;DM;PDS2014-0161;161;2010-12-11;2011-01-09;;0;DAYS;F;RAT;SPRAGUE-DAWLEY;13;20;F - High;;;;;
PDS2014;DM;PDS2014-0162;162;2010-12-11;2011-01-09;;0;DAYS;F;RAT;SPRAGUE-DAWLEY;13;20;F - High;;;;;
PDS2014;DM;PDS2014-0163;163;2010-12-11;2011-01-09;;0;DAYS;F;RAT;SPRAGUE-DAWLEY;13;20;F - High;;;;;
PDS2014;DM;PDS2014-0164;164;2010-12-11;2011-01-09;;0;DAYS;F;RAT;SPRAGUE-DAWLEY;13;20;F - High;;;;;
PDS2014;DM;PDS2014-0165;165;2010-12-11;2011-01-09;;0;DAYS;F;RAT;SPRAGUE-DAWLEY;13;20;F - High;;;;;
PDS2014;DM;PDS2014-0166;166;2010-12-11;2011-01-10;;0;DAYS;F;RAT;SPRAGUE-DAWLEY;13;20;F - High;;;;;
PDS2014;DM;PDS2014-0167;167;2010-12-11;2011-01-10;;0;DAYS;F;RAT;SPRAGUE-DAWLEY;13;20;F - High;;;;;
PDS2014;DM;PDS2014-0168;168;2010-12-11;2011-01-10;;0;DAYS;F;RAT;SPRAGUE-DAWLEY;13;20;F - High;;;;;
PDS2014;DM;PDS2014-0169;169;2010-12-11;2011-01-10;;0;DAYS;F;RAT;SPRAGUE-DAWLEY;13;20;F - High;;;;;
PDS2014;DM;PDS2014-0170;170;2010-12-11;2011-01-10;;0;DAYS;F;RAT;SPRAGUE-DAWLEY;13;20;F - High;;;;;
PDS2014;DM;PDS2014-0171;171;2010-12-11;2011-02-06;;0;DAYS;F;RAT;SPRAGUE-DAWLEY;14;21;F - High - with recovery;;;;;
PDS2014;DM;PDS2014-0172;172;2010-12-11;2011-02-06;;0;DAYS;F;RAT;SPRAGUE-DAWLEY;14;21;F - High - with recovery;;;;;
PDS2014;DM;PDS2014-0173;173;2010-12-11;2011-02-06;;0;DAYS;F;RAT;SPRAGUE-DAWLEY;14;21;F - High - with recovery;;;;;
PDS2014;DM;PDS2014-0174;174;2010-12-11;2011-02-06;;0;DAYS;F;RAT;SPRAGUE-DAWLEY;14;21;F - High - with recovery;;;;;
PDS2014;DM;PDS2014-0175;175;2010-12-11;2011-02-06;;0;DAYS;F;RAT;SPRAGUE-DAWLEY;14;21;F - High - with recovery;;;;;
PDS2014;DM;PDS2014-0176;176;2010-12-11;2011-01-11;;0;DAYS;F;RAT;SPRAGUE-DAWLEY;13;22;F - High;;;;;
PDS2014;DM;PDS2014-0177;177;2010-12-11;2011-01-11;;0;DAYS;F;RAT;SPRAGUE-DAWLEY;13;22;F - High;;;;;
PDS2014;DM;PDS2014-0178;178;2010-12-11;2011-01-11;;0;DAYS;F;RAT;SPRAGUE-DAWLEY;13;22;F - High;;;;;
PC201708;DM;PC201708-1001;1001;2016-02-01;2016-03-01;;;WEEKS;M;;;1;1;Vehicle Control;;;6-7;;
PC201708;DM;PC201708-1002;1002;2016-02-01;2016-05-02;;;WEEKS;M;;;1;1;Vehicle Control;;;6-7;;
PC201708;DM;PC201708-1003;1003;2016-02-01;2016-05-02;;;WEEKS;M;;;1;1;Vehicle Control;;;6-7;;
PC201708;DM;PC201708-1004;1004;2016-02-01;2016-05-02;;;WEEKS;M;;;1;1;Vehicle Control;;;6-7;;
PC201708;DM;PC201708-1005;1005;2016-02-01;2016-05-02;;;WEEKS;M;;;1;1;Vehicle Control;;;6-7;;
PC201708;DM;PC201708-1006;1006;2016-02-01;2016-05-02;;;WEEKS;M;;;1;1;Vehicle Control;;;6-7;;
PC201708;DM;PC201708-1007;1007;2016-02-01;2016-05-02;;;WEEKS;M;;;1;1;Vehicle Control;;;6-7;;
PC201708;DM;PC201708-1008;1008;2016-02-01;2016-05-02;;;WEEKS;M;;;1;1;Vehicle Control;;;6-7;;
PC201708;DM;PC201708-1009;1009;2016-02-01;2016-05-02;;;WEEKS;M;;;1;1;Vehicle Control;;;6-7;;
PC201708;DM;PC201708-1010;1010;2016-02-01;2016-05-02;;;WEEKS;M;;;1;1;Vehicle Control;;;6-7;;
PC201708;DM;PC201708-1011;1011;2016-02-01;2016-05-16;;;WEEKS;M;;;1R;1R;Vehicle Control with recovery;;;6-7;;
PC201708;DM;PC201708-1012;1012;2016-02-01;2016-05-16;;;WEEKS;M;;;1R;1R;Vehicle Control with recovery;;;6-7;;
PC201708;DM;PC201708-1013;1013;2016-02-01;2016-05-16;;;WEEKS;M;;;1R;1R;Vehicle Control with recovery;;;6-7;;
PC201708;DM;PC201708-1014;1014;2016-02-01;2016-05-16;;;WEEKS;M;;;1R;1R;Vehicle Control with recovery;;;6-7;;
PC201708;DM;PC201708-1015;1015;2016-02-01;2016-05-16;;;WEEKS;M;;;1R;1R;Vehicle Control with recovery;;;6-7;;
PC201708;DM;PC201708-1101;1101;2016-02-01;2016-05-02;;;WEEKS;F;;;1;1;Vehicle Control;;;6-7;;
PC201708;DM;PC201708-1102;1102;2016-02-01;2016-05-02;;;WEEKS;F;;;1;1;Vehicle Control;;;6-7;;
PC201708;DM;PC201708-1103;1103;2016-02-01;2016-05-02;;;WEEKS;F;;;1;1;Vehicle Control;;;6-7;;
PC201708;DM;PC201708-1104;1104;2016-02-01;2016-05-02;;;WEEKS;F;;;1;1;Vehicle Control;;;6-7;;
PC201708;DM;PC201708-1105;1105;2016-02-01;2016-05-02;;;WEEKS;F;;;1;1;Vehicle Control;;;6-7;;
PC201708;DM;PC201708-1106;1106;2016-02-01;2016-05-02;;;WEEKS;F;;;1;1;Vehicle Control;;;6-7;;
PC201708;DM;PC201708-1107;1107;2016-02-01;2016-05-02;;;WEEKS;F;;;1;1;Vehicle Control;;;6-7;;
PC201708;DM;PC201708-1108;1108;2016-02-01;2016-05-02;;;WEEKS;F;;;1;1;Vehicle Control;;;6-7;;
PC201708;DM;PC201708-1109;1109;2016-02-01;2016-05-02;;;WEEKS;F;;;1;1;Vehicle Control;;;6-7;;
PC201708;DM;PC201708-1110;1110;2016-02-01;2016-05-02;;;WEEKS;F;;;1;1;Vehicle Control;;;6-7;;
PC201708;DM;PC201708-1111;1111;2016-02-01;2016-05-16;;;WEEKS;F;;;1R;1R;Vehicle Control with recovery;;;6-7;;
PC201708;DM;PC201708-1112;1112;2016-02-01;2016-05-16;;;WEEKS;F;;;1R;1R;Vehicle Control with recovery;;;6-7;;
PC201708;DM;PC201708-1113;1113;2016-02-01;2016-05-16;;;WEEKS;F;;;1R;1R;Vehicle Control with recovery;;;6-7;;
PC201708;DM;PC201708-1114;1114;2016-02-01;2016-05-16;;;WEEKS;F;;;1R;1R;Vehicle Control with recovery;;;6-7;;
PC201708;DM;PC201708-1115;1115;2016-02-01;2016-05-16;;;WEEKS;F;;;1R;1R;Vehicle Control with recovery;;;6-7;;
PC201708;DM;PC201708-2001;2001;2016-02-01;2016-05-02;;;WEEKS;M;;;2;2;2 mg/kg PCDRUG;;;6-7;;
PC201708;DM;PC201708-2002;2002;2016-02-01;2016-05-02;;;WEEKS;M;;;2;2;2 mg/kg PCDRUG;;;6-7;;
PC201708;DM;PC201708-2003;2003;2016-02-01;2016-05-02;;;WEEKS;M;;;2;2;2 mg/kg PCDRUG;;;6-7;;
PC201708;DM;PC201708-2004;2004;2016-02-01;2016-05-02;;;WEEKS;M;;;2;2;2 mg/kg PCDRUG;;;6-7;;
PC201708;DM;PC201708-2005;2005;2016-02-01;2016-05-02;;;WEEKS;M;;;2;2;2 mg/kg PCDRUG;;;6-7;;
PC201708;DM;PC201708-2006;2006;2016-02-01;2016-05-02;;;WEEKS;M;;;2;2;2 mg/kg PCDRUG;;;6-7;;
PC201708;DM;PC201708-2007;2007;2016-02-01;2016-05-02;;;WEEKS;M;;;2;2;2 mg/kg PCDRUG;;;6-7;;
PC201708;DM;PC201708-2008;2008;2016-02-01;2016-05-02;;;WEEKS;M;;;2;2;2 mg/kg PCDRUG;;;6-7;;
PC201708;DM;PC201708-2009;2009;2016-02-01;2016-05-02;;;WEEKS;M;;;2;2;2 mg/kg PCDRUG;;;6-7;;
PC201708;DM;PC201708-2010;2010;2016-02-01;2016-05-02;;;WEEKS;M;;;2;2;2 mg/kg PCDRUG;;;6-7;;
PC201708;DM;PC201708-2011;2011;2016-02-01;2016-05-16;;;WEEKS;M;;;2R;2R;2 mg/kg PCDRUG with recovery;;;6-7;;
PC201708;DM;PC201708-2012;2012;2016-02-01;2016-05-16;;;WEEKS;M;;;2R;2R;2 mg/kg PCDRUG with recovery;;;6-7;;
PC201708;DM;PC201708-2013;2013;2016-02-01;2016-05-16;;;WEEKS;M;;;2R;2R;2 mg/kg PCDRUG with recovery;;;6-7;;
PC201708;DM;PC201708-2014;2014;2016-02-01;2016-05-16;;;WEEKS;M;;;2R;2R;2 mg/kg PCDRUG with recovery;;;6-7;;
PC201708;DM;PC201708-2015;2015;2016-02-01;2016-05-16;;;WEEKS;M;;;2R;2R;2 mg/kg PCDRUG with recovery;;;6-7;;
PC201708;DM;PC201708-2101;2101;2016-02-01;2016-05-02;;;WEEKS;F;;;2;2;2 mg/kg PCDRUG;;;6-7;;
PC201708;DM;PC201708-2102;2102;2016-02-01;2016-05-02;;;WEEKS;F;;;2;2;2 mg/kg PCDRUG;;;6-7;;
PC201708;DM;PC201708-2103;2103;2016-02-01;2016-05-02;;;WEEKS;F;;;2;2;2 mg/kg PCDRUG;;;6-7;;
PC201708;DM;PC201708-2104;2104;2016-02-01;2016-05-02;;;WEEKS;F;;;2;2;2 mg/kg PCDRUG;;;6-7;;
PC201708;DM;PC201708-2105;2105;2016-02-01;2016-05-02;;;WEEKS;F;;;2;2;2 mg/kg PCDRUG;;;6-7;;
PC201708;DM;PC201708-2106;2106;2016-02-01;2016-05-02;;;WEEKS;F;;;2;2;2 mg/kg PCDRUG;;;6-7;;
PC201708;DM;PC201708-2107;2107;2016-02-01;2016-05-02;;;WEEKS;F;;;2;2;2 mg/kg PCDRUG;;;6-7;;
PC201708;DM;PC201708-2108;2108;2016-02-01;2016-05-02;;;WEEKS;F;;;2;2;2 mg/kg PCDRUG;;;6-7;;
PC201708;DM;PC201708-2109;2109;2016-02-01;2016-05-02;;;WEEKS;F;;;2;2;2 mg/kg PCDRUG;;;6-7;;
PC201708;DM;PC201708-2110;2110;2016-02-01;2016-05-02;;;WEEKS;F;;;2;2;2 mg/kg PCDRUG;;;6-7;;
PC201708;DM;PC201708-2111;2111;2016-02-01;2016-05-16;;;WEEKS;F;;;2R;2R;2 mg/kg PCDRUG with recovery;;;6-7;;
PC201708;DM;PC201708-2112;2112;2016-02-01;2016-05-16;;;WEEKS;F;;;2R;2R;2 mg/kg PCDRUG with recovery;;;6-7;;
PC201708;DM;PC201708-2113;2113;2016-02-01;2016-05-16;;;WEEKS;F;;;2R;2R;2 mg/kg PCDRUG with recovery;;;6-7;;
PC201708;DM;PC201708-2114;2114;2016-02-01;2016-05-16;;;WEEKS;F;;;2R;2R;2 mg/kg PCDRUG with recovery;;;6-7;;
PC201708;DM;PC201708-2115;2115;2016-02-01;2016-05-16;;;WEEKS;F;;;2R;2R;2 mg/kg PCDRUG with recovery;;;6-7;;
PC201708;DM;PC201708-2201;2201;2016-02-01;2016-05-02;;;WEEKS;M;;;2;2TK;2 mg/kg PCDRUG;;;6-7;;
PC201708;DM;PC201708-2202;2202;2016-02-01;2016-05-02;;;WEEKS;M;;;2;2TK;2 mg/kg PCDRUG;;;6-7;;
PC201708;DM;PC201708-2203;2203;2016-02-01;2016-05-02;;;WEEKS;M;;;2;2TK;2 mg/kg PCDRUG;;;6-7;;
PC201708;DM;PC201708-2204;2204;2016-02-01;2016-05-02;;;WEEKS;M;;;2;2TK;2 mg/kg PCDRUG;;;6-7;;
PC201708;DM;PC201708-2205;2205;2016-02-01;2016-05-03;;;WEEKS;M;;;2;2TK;2 mg/kg PCDRUG;;;6-7;;
PC201708;DM;PC201708-2206;2206;2016-02-01;2016-05-02;;;WEEKS;F;;;2;2TK;2 mg/kg PCDRUG;;;6-7;;
PC201708;DM;PC201708-2207;2207;2016-02-01;2016-05-02;;;WEEKS;F;;;2;2TK;2 mg/kg PCDRUG;;;6-7;;
PC201708;DM;PC201708-2208;2208;2016-02-01;2016-05-02;;;WEEKS;F;;;2;2TK;2 mg/kg PCDRUG;;;6-7;;
PC201708;DM;PC201708-2209;2209;2016-02-01;2016-05-02;;;WEEKS;F;;;2;2TK;2 mg/kg PCDRUG;;;6-7;;
PC201708;DM;PC201708-2210;2210;2016-02-01;2016-05-03;;;WEEKS;F;;;2;2TK;2 mg/kg PCDRUG;;;6-7;;
PC201708;DM;PC201708-3001;3001;2016-02-01;2016-05-02;;;WEEKS;M;;;3;3;20 mg/kg PCDRUG;;;6-7;;
PC201708;DM;PC201708-3002;3002;2016-02-01;2016-05-02;;;WEEKS;M;;;3;3;20 mg/kg PCDRUG;;;6-7;;
PC201708;DM;PC201708-3003;3003;2016-02-01;2016-05-02;;;WEEKS;M;;;3;3;20 mg/kg PCDRUG;;;6-7;;
PC201708;DM;PC201708-3004;3004;2016-02-01;2016-05-02;;;WEEKS;M;;;3;3;20 mg/kg PCDRUG;;;6-7;;
PC201708;DM;PC201708-3005;3005;2016-02-01;2016-05-02;;;WEEKS;M;;;3;3;20 mg/kg PCDRUG;;;6-7;;
PC201708;DM;PC201708-3006;3006;2016-02-01;2016-05-02;;;WEEKS;M;;;3;3;20 mg/kg PCDRUG;;;6-7;;
PC201708;DM;PC201708-3007;3007;2016-02-01;2016-05-02;;;WEEKS;M;;;3;3;20 mg/kg PCDRUG;;;6-7;;
PC201708;DM;PC201708-3008;3008;2016-02-01;2016-05-02;;;WEEKS;M;;;3;3;20 mg/kg PCDRUG;;;6-7;;
PC201708;DM;PC201708-3009;3009;2016-02-01;2016-05-02;;;WEEKS;M;;;3;3;20 mg/kg PCDRUG;;;6-7;;
PC201708;DM;PC201708-3010;3010;2016-02-01;2016-05-02;;;WEEKS;M;;;3;3;20 mg/kg PCDRUG;;;6-7;;
PC201708;DM;PC201708-3011;3011;2016-02-01;2016-05-16;;;WEEKS;M;;;3R;3R;20 mg/kg PCDRUG with recovery;;;6-7;;
PC201708;DM;PC201708-3012;3012;2016-02-01;2016-05-16;;;WEEKS;M;;;3R;3R;20 mg/kg PCDRUG with recovery;;;6-7;;
PC201708;DM;PC201708-3013;3013;2016-02-01;2016-05-16;;;WEEKS;M;;;3R;3R;20 mg/kg PCDRUG with recovery;;;6-7;;
PC201708;DM;PC201708-3014;3014;2016-02-01;2016-05-16;;;WEEKS;M;;;3R;3R;20 mg/kg PCDRUG with recovery;;;6-7;;
PC201708;DM;PC201708-3015;3015;2016-02-01;2016-05-16;;;WEEKS;M;;;3R;3R;20 mg/kg PCDRUG with recovery;;;6-7;;
PC201708;DM;PC201708-3101;3101;2016-02-01;2016-05-02;;;WEEKS;F;;;3;3;20 mg/kg PCDRUG;;;6-7;;
PC201708;DM;PC201708-3102;3102;2016-02-01;2016-05-02;;;WEEKS;F;;;3;3;20 mg/kg PCDRUG;;;6-7;;
PC201708;DM;PC201708-3103;3103;2016-02-01;2016-05-02;;;WEEKS;F;;;3;3;20 mg/kg PCDRUG;;;6-7;;
PC201708;DM;PC201708-3104;3104;2016-02-01;2016-05-02;;;WEEKS;F;;;3;3;20 mg/kg PCDRUG;;;6-7;;
PC201708;DM;PC201708-3105;3105;2016-02-01;2016-05-02;;;WEEKS;F;;;3;3;20 mg/kg PCDRUG;;;6-7;;
PC201708;DM;PC201708-3106;3106;2016-02-01;2016-05-02;;;WEEKS;F;;;3;3;20 mg/kg PCDRUG;;;6-7;;
PC201708;DM;PC201708-3107;3107;2016-02-01;2016-05-02;;;WEEKS;F;;;3;3;20 mg/kg PCDRUG;;;6-7;;
PC201708;DM;PC201708-3108;3108;2016-02-01;2016-05-02;;;WEEKS;F;;;3;3;20 mg/kg PCDRUG;;;6-7;;
PC201708;DM;PC201708-3109;3109;2016-02-01;2016-05-02;;;WEEKS;F;;;3;3;20 mg/kg PCDRUG;;;6-7;;
PC201708;DM;PC201708-3110;3110;2016-02-01;2016-05-02;;;WEEKS;F;;;3;3;20 mg/kg PCDRUG;;;6-7;;
PC201708;DM;PC201708-3111;3111;2016-02-01;2016-05-16;;;WEEKS;F;;;3R;3R;20 mg/kg PCDRUG with recovery;;;6-7;;
PC201708;DM;PC201708-3112;3112;2016-02-01;2016-05-16;;;WEEKS;F;;;3R;3R;20 mg/kg PCDRUG with recovery;;;6-7;;
PC201708;DM;PC201708-3113;3113;2016-02-01;2016-05-16;;;WEEKS;F;;;3R;3R;20 mg/kg PCDRUG with recovery;;;6-7;;
PC201708;DM;PC201708-3114;3114;2016-02-01;2016-05-16;;;WEEKS;F;;;3R;3R;20 mg/kg PCDRUG with recovery;;;6-7;;
PC201708;DM;PC201708-3115;3115;2016-02-01;2016-05-16;;;WEEKS;F;;;3R;3R;20 mg/kg PCDRUG with recovery;;;6-7;;
PC201708;DM;PC201708-3201;3201;2016-02-01;2016-05-02;;;WEEKS;M;;;3;3TK;20 mg/kg PCDRUG;;;6-7;;
PC201708;DM;PC201708-3202;3202;2016-02-01;2016-05-02;;;WEEKS;M;;;3;3TK;20 mg/kg PCDRUG;;;6-7;;
PC201708;DM;PC201708-3203;3203;2016-02-01;2016-05-02;;;WEEKS;M;;;3;3TK;20 mg/kg PCDRUG;;;6-7;;
PC201708;DM;PC201708-3204;3204;2016-02-01;2016-05-02;;;WEEKS;M;;;3;3TK;20 mg/kg PCDRUG;;;6-7;;
PC201708;DM;PC201708-3205;3205;2016-02-01;2016-05-03;;;WEEKS;M;;;3;3TK;20 mg/kg PCDRUG;;;6-7;;
PC201708;DM;PC201708-3206;3206;2016-02-01;2016-05-02;;;WEEKS;F;;;3;3TK;20 mg/kg PCDRUG;;;6-7;;
PC201708;DM;PC201708-3207;3207;2016-02-01;2016-05-02;;;WEEKS;F;;;3;3TK;20 mg/kg PCDRUG;;;6-7;;
PC201708;DM;PC201708-3208;3208;2016-02-01;2016-05-02;;;WEEKS;F;;;3;3TK;20 mg/kg PCDRUG;;;6-7;;
PC201708;DM;PC201708-3209;3209;2016-02-01;2016-05-02;;;WEEKS;F;;;3;3TK;20 mg/kg PCDRUG;;;6-7;;
PC201708;DM;PC201708-3210;3210;2016-02-01;2016-05-03;;;WEEKS;F;;;3;3TK;20 mg/kg PCDRUG;;;6-7;;
PC201708;DM;PC201708-4001;4001;2016-02-01;2016-05-02;;;WEEKS;M;;;4;4;200 mg/kg PCDRUG;;;6-7;;
PC201708;DM;PC201708-4002;4002;2016-02-01;2016-05-02;;;WEEKS;M;;;4;4;200 mg/kg PCDRUG;;;6-7;;
PC201708;DM;PC201708-4003;4003;2016-02-01;2016-04-30;;;WEEKS;M;;;4;4;200 mg/kg PCDRUG;;;6-7;;
PC201708;DM;PC201708-4004;4004;2016-02-01;2016-05-02;;;WEEKS;M;;;4;4;200 mg/kg PCDRUG;;;6-7;;
PC201708;DM;PC201708-4005;4005;2016-02-01;2016-05-02;;;WEEKS;M;;;4;4;200 mg/kg PCDRUG;;;6-7;;
PC201708;DM;PC201708-4006;4006;2016-02-01;2016-05-02;;;WEEKS;M;;;4;4;200 mg/kg PCDRUG;;;6-7;;
PC201708;DM;PC201708-4007;4007;2016-02-01;2016-05-02;;;WEEKS;M;;;4;4;200 mg/kg PCDRUG;;;6-7;;
PC201708;DM;PC201708-4008;4008;2016-02-01;2016-05-02;;;WEEKS;M;;;4;4;200 mg/kg PCDRUG;;;6-7;;
PC201708;DM;PC201708-4009;4009;2016-02-01;2016-05-02;;;WEEKS;M;;;4;4;200 mg/kg PCDRUG;;;6-7;;
PC201708;DM;PC201708-4010;4010;2016-02-01;2016-05-02;;;WEEKS;M;;;4;4;200 mg/kg PCDRUG;;;6-7;;
PC201708;DM;PC201708-4011;4011;2016-02-01;2016-05-16;;;WEEKS;M;;;4R;4R;200 mg/kg PCDRUG with recovery;;;6-7;;
PC201708;DM;PC201708-4012;4012;2016-02-01;2016-05-16;;;WEEKS;M;;;4R;4R;200 mg/kg PCDRUG with recovery;;;6-7;;
PC201708;DM;PC201708-4013;4013;2016-02-01;2016-05-16;;;WEEKS;M;;;4R;4R;200 mg/kg PCDRUG with recovery;;;6-7;;
PC201708;DM;PC201708-4014;4014;2016-02-01;2016-05-16;;;WEEKS;M;;;4R;4R;200 mg/kg PCDRUG with recovery;;;6-7;;
PC201708;DM;PC201708-4015;4015;2016-02-01;2016-05-16;;;WEEKS;M;;;4R;4R;200 mg/kg PCDRUG with recovery;;;6-7;;
PC201708;DM;PC201708-4101;4101;2016-02-01;2016-05-02;;;WEEKS;F;;;4;4;200 mg/kg PCDRUG;;;6-7;;
PC201708;DM;PC201708-4102;4102;2016-02-01;2016-05-02;;;WEEKS;F;;;4;4;200 mg/kg PCDRUG;;;6-7;;
PC201708;DM;PC201708-4103;4103;2016-02-01;2016-05-02;;;WEEKS;F;;;4;4;200 mg/kg PCDRUG;;;6-7;;
PC201708;DM;PC201708-4104;4104;2016-02-01;2016-05-02;;;WEEKS;F;;;4;4;200 mg/kg PCDRUG;;;6-7;;
PC201708;DM;PC201708-4105;4105;2016-02-01;2016-05-02;;;WEEKS;F;;;4;4;200 mg/kg PCDRUG;;;6-7;;
PC201708;DM;PC201708-4106;4106;2016-02-01;2016-05-02;;;WEEKS;F;;;4;4;200 mg/kg PCDRUG;;;6-7;;
PC201708;DM;PC201708-4107;4107;2016-02-01;2016-05-02;;;WEEKS;F;;;4;4;200 mg/kg PCDRUG;;;6-7;;
PC201708;DM;PC201708-4108;4108;2016-02-01;2016-05-02;;;WEEKS;F;;;4;4;200 mg/kg PCDRUG;;;6-7;;
PC201708;DM;PC201708-4109;4109;2016-02-01;2016-05-02;;;WEEKS;F;;;4;4;200 mg/kg PCDRUG;;;6-7;;
PC201708;DM;PC201708-4110;4110;2016-02-01;2016-05-02;;;WEEKS;F;;;4;4;200 mg/kg PCDRUG;;;6-7;;
PC201708;DM;PC201708-4111;4111;2016-02-01;2016-05-16;;;WEEKS;F;;;4R;4R;200 mg/kg PCDRUG with recovery;;;6-7;;
PC201708;DM;PC201708-4112;4112;2016-02-01;2016-05-16;;;WEEKS;F;;;4R;4R;200 mg/kg PCDRUG with recovery;;;6-7;;
PC201708;DM;PC201708-4113;4113;2016-02-01;2016-05-10;;;WEEKS;F;;;4R;4R;200 mg/kg PCDRUG with recovery;;;6-7;;
PC201708;DM;PC201708-4114;4114;2016-02-01;2016-05-16;;;WEEKS;F;;;4R;4R;200 mg/kg PCDRUG with recovery;;;6-7;;
PC201708;DM;PC201708-4115;4115;2016-02-01;2016-05-16;;;WEEKS;F;;;4R;4R;200 mg/kg PCDRUG with recovery;;;6-7;;
PC201708;DM;PC201708-4201;4201;2016-02-01;2016-05-02;;;WEEKS;M;;;4;4TK;200 mg/kg PCDRUG;;;6-7;;
PC201708;DM;PC201708-4202;4202;2016-02-01;2016-05-02;;;WEEKS;M;;;4;4TK;200 mg/kg PCDRUG;;;6-7;;
PC201708;DM;PC201708-4203;4203;2016-02-01;2016-05-02;;;WEEKS;M;;;4;4TK;200 mg/kg PCDRUG;;;6-7;;
PC201708;DM;PC201708-4204;4204;2016-02-01;2016-05-02;;;WEEKS;M;;;4;4TK;200 mg/kg PCDRUG;;;6-7;;
PC201708;DM;PC201708-4205;4205;2016-02-01;2016-05-03;;;WEEKS;M;;;4;4TK;200 mg/kg PCDRUG;;;6-7;;
PC201708;DM;PC201708-4206;4206;2016-02-01;2016-05-02;;;WEEKS;F;;;4;4TK;200 mg/kg PCDRUG;;;6-7;;
PC201708;DM;PC201708-4207;4207;2016-02-01;2016-05-02;;;WEEKS;F;;;4;4TK;200 mg/kg PCDRUG;;;6-7;;
PC201708;DM;PC201708-4208;4208;2016-02-01;2016-05-02;;;WEEKS;F;;;4;4TK;200 mg/kg PCDRUG;;;6-7;;
PC201708;DM;PC201708-4209;4209;2016-02-01;2016-05-02;;;WEEKS;F;;;4;4TK;200 mg/kg PCDRUG;;;6-7;;
PC201708;DM;PC201708-4210;4210;2016-02-01;2016-05-03;;;WEEKS;F;;;4;4TK;200 mg/kg PCDRUG;;;6-7;;
